# Cycle: 1
# Start Time: 2026-01-21 14:15:23
# Sample Rate: 100 Hz
# Format: Timestamp(ms),Ax(m/s²),Ay,Az,Gx(°/s),Gy,Gz
Timestamp,Ax,Ay,Az,Gx,Gy,Gz
21,-0.830,4.156,8.846,-0.039,-0.207,-0.017
49,-0.837,4.167,8.856,0.006,-0.222,-0.002
59,-0.830,4.172,8.827,-0.223,-0.115,0.212
69,-0.829,4.176,8.820,-0.528,0.037,0.303
79,-0.827,4.174,8.788,-0.757,0.129,0.395
89,-0.818,4.154,8.832,-0.879,0.144,0.410
98,-0.830,4.150,8.834,-0.940,0.159,0.319
109,-0.835,4.155,8.841,-0.742,0.068,0.242
119,-0.827,4.154,8.845,-0.574,-0.024,0.166
129,-0.828,4.141,8.853,-0.253,0.007,0.059
139,-0.837,4.152,8.870,-0.039,-0.008,-0.063
149,-0.839,4.156,8.836,-0.085,0.022,-0.033
159,-0.835,4.158,8.814,-0.177,0.053,-0.048
169,-0.825,4.170,8.799,-0.390,0.053,0.044
179,-0.842,4.184,8.828,-0.635,0.175,0.090
189,-0.830,4.150,8.846,-0.818,0.221,0.151
199,-0.849,4.147,8.815,-0.940,0.266,0.212
209,-0.846,4.148,8.816,-0.940,0.144,0.196
219,-0.847,4.165,8.847,-0.787,0.022,0.212
229,-0.839,4.148,8.836,-0.650,0.007,0.166
239,-0.816,4.152,8.833,-0.375,-0.039,0.090
249,-0.819,4.159,8.842,-0.116,-0.008,0.105
259,-0.799,4.161,8.847,-0.024,-0.085,0.151
269,-0.828,4.149,8.828,-0.055,-0.085,0.151
279,-0.825,4.156,8.829,-0.085,-0.100,0.105
289,-0.839,4.184,8.840,-0.253,-0.146,0.135
299,-0.821,4.160,8.788,-0.482,-0.131,0.257
309,-0.813,4.142,8.817,-0.558,-0.115,0.288
319,-0.834,4.142,8.859,-0.681,0.022,0.334
329,-0.821,4.146,8.856,-0.665,0.098,0.288
339,-0.822,4.162,8.866,-0.604,0.205,0.242
349,-0.817,4.185,8.832,-0.482,0.190,0.151
359,-0.809,4.176,8.850,-0.360,0.144,0.059
369,-0.819,4.185,8.822,-0.192,0.098,0.059
379,-0.825,4.185,8.827,-0.161,0.007,-0.017
389,-0.845,4.158,8.840,0.068,-0.115,0.120
399,-0.834,4.156,8.847,0.434,-0.008,0.364
409,-0.839,4.160,8.851,0.800,0.144,0.319
419,-0.811,4.161,8.828,1.029,0.251,0.090
429,-0.816,4.160,8.793,1.090,-0.054,-0.216
439,-0.822,4.161,8.822,0.831,-0.207,-0.384
449,-0.836,4.161,8.817,0.465,-0.344,-0.155
459,-0.843,4.177,8.817,-0.070,-0.390,0.257
469,-0.810,4.164,8.805,-0.635,-0.360,0.563
479,-0.822,4.158,8.826,-1.062,-0.192,0.578
489,-0.800,4.154,8.864,-0.986,0.114,0.715
499,-0.795,4.140,8.891,-0.207,0.388,1.006
509,-0.779,4.130,8.893,1.045,0.923,1.128
519,-0.803,4.155,8.856,2.510,1.030,0.639
529,-0.800,4.179,8.780,3.671,0.511,-0.307
539,-0.825,4.211,8.809,4.098,-0.268,-1.132
549,-0.836,4.215,8.762,3.548,-1.016,-1.529
559,-0.866,4.223,8.765,2.174,-1.688,-1.086
569,-0.836,4.235,8.739,0.159,-1.642,-0.124
579,-0.815,4.256,8.780,-2.161,-0.665,0.670
589,-0.801,4.190,8.800,-3.765,0.434,1.509
599,-0.810,4.158,8.854,-3.826,1.686,2.196
609,-0.798,4.113,8.939,-2.207,2.709,2.349
619,-0.799,4.086,8.975,1.197,2.679,2.044
629,-0.803,4.115,8.981,5.655,1.671,1.128
639,-0.775,4.168,8.924,9.686,0.373,-0.659
649,-0.819,4.213,8.826,12.388,-1.047,-2.399
659,-0.848,4.271,8.751,13.014,-2.466,-3.315
669,-0.880,4.340,8.659,11.182,-2.894,-2.964
679,-0.877,4.373,8.591,7.365,-2.070,-1.514
689,-0.858,4.391,8.574,2.449,-0.558,0.441
699,-0.833,4.383,8.621,-2.574,1.198,1.952
709,-0.812,4.341,8.699,-6.253,2.663,2.807
719,-0.804,4.250,8.802,-7.337,3.518,3.189
729,-0.817,4.204,8.897,-5.719,3.442,2.853
739,-0.813,4.197,8.929,-2.192,2.434,1.677
749,-0.822,4.190,8.907,2.159,0.465,-0.078
759,-0.806,4.217,8.866,6.007,-1.383,-2.048
769,-0.831,4.264,8.810,8.266,-2.650,-3.529
779,-0.860,4.295,8.750,8.312,-2.909,-3.605
789,-0.870,4.364,8.672,6.159,-2.283,-2.475
799,-0.836,4.395,8.571,2.281,-0.726,-0.781
809,-0.827,4.405,8.591,-2.299,0.984,0.929
819,-0.840,4.393,8.660,-6.100,2.144,2.166
829,-0.833,4.312,8.725,-8.742,3.549,3.250
839,-0.852,4.228,8.817,-8.604,3.503,3.525
849,-0.835,4.180,8.907,-5.963,2.312,2.700
859,-0.812,4.180,8.927,-2.024,0.724,1.143
869,-0.825,4.180,8.885,2.266,-1.444,-0.689
879,-0.810,4.220,8.857,5.671,-2.940,-2.078
889,-0.828,4.259,8.805,7.594,-3.795,-2.903
899,-0.833,4.338,8.725,7.060,-3.138,-2.552
909,-0.825,4.366,8.680,4.495,-1.902,-1.223
919,-0.822,4.395,8.641,0.739,-0.299,0.135
929,-0.804,4.362,8.641,-3.383,1.366,1.326
939,-0.748,4.269,8.709,-6.894,1.808,2.395
949,-0.719,4.222,8.777,-9.429,1.427,3.082
959,-0.709,4.147,8.847,-9.505,0.541,2.578
969,-0.667,4.082,8.914,-7.383,-1.520,1.174
979,-0.610,4.062,8.973,-4.848,-3.734,-0.796
989,-0.639,4.148,8.974,-1.917,-5.489,-2.216
999,-0.736,4.140,8.893,1.213,-6.757,-2.933
1009,-0.739,4.183,8.815,1.564,-7.306,-5.315
1019,-0.837,4.307,8.751,0.449,-6.451,-6.124
1048,-1.004,4.444,8.621,-3.001,2.129,-2.094
1058,-0.818,4.422,8.641,-7.398,4.175,-0.338
1068,-0.847,4.281,8.695,-11.658,6.098,0.731
1078,-0.975,4.105,8.827,-12.055,4.999,2.746
1088,-0.870,4.080,8.924,-9.307,2.587,4.028
1098,-0.800,4.098,8.974,-5.307,0.694,2.807
1108,-0.849,4.041,8.994,0.190,-2.085,1.021
1118,-0.811,4.057,9.005,6.159,-4.894,0.059
1128,-0.733,4.143,8.942,9.915,-4.986,-0.567
1138,-0.805,4.215,8.811,11.152,-4.207,-0.781
1148,-0.815,4.320,8.696,9.793,-4.024,-0.353
1158,-0.714,4.429,8.607,5.487,-2.482,-0.155
1168,-0.726,4.389,8.585,-0.268,-0.299,-0.002
1178,-0.791,4.341,8.640,-5.276,1.106,0.975
1188,-0.742,4.302,8.718,-8.848,2.572,1.906
1198,-0.740,4.253,8.792,-10.619,4.236,1.754
1208,-0.781,4.160,8.866,-9.520,4.373,0.731
1218,-0.775,4.138,8.956,-6.238,3.518,-0.536
1228,-0.800,4.076,8.981,-1.917,2.602,-1.681
1238,-0.858,4.051,8.956,2.694,0.862,-2.399
1248,-0.851,4.110,8.900,6.205,-1.276,-2.506
1258,-0.841,4.214,8.820,7.228,-2.604,-2.201
1268,-0.848,4.244,8.714,5.945,-3.138,-1.330
1278,-0.840,4.279,8.680,3.258,-3.001,0.212
1288,-0.803,4.308,8.690,-0.345,-1.764,2.028
1298,-0.788,4.299,8.726,-3.581,-0.070,3.509
1308,-0.773,4.267,8.763,-5.413,0.816,4.242
1318,-0.732,4.214,8.852,-5.612,1.198,3.647
1328,-0.725,4.172,8.866,-4.177,1.106,2.166
1338,-0.749,4.153,8.924,-1.337,0.343,0.456
1348,-0.733,4.174,8.938,1.701,-0.543,-1.162
1358,-0.751,4.210,8.875,3.762,-0.665,-2.445
1368,-0.764,4.233,8.808,4.281,-0.558,-3.193
1378,-0.792,4.273,8.726,3.213,-0.192,-3.132
1388,-0.807,4.299,8.719,0.739,0.770,-2.384
1398,-0.854,4.268,8.683,-2.024,1.763,-0.903
1408,-0.852,4.252,8.723,-4.345,2.144,0.731
1418,-0.852,4.240,8.765,-5.703,2.037,1.708
1428,-0.841,4.180,8.829,-5.658,1.335,2.135
1438,-0.824,4.143,8.860,-3.948,0.190,2.120
1448,-0.813,4.130,8.920,-1.215,-0.894,1.738
1458,-0.794,4.125,8.936,1.793,-1.673,1.174
1468,-0.784,4.171,8.895,4.266,-2.192,0.502
1478,-0.727,4.228,8.826,5.503,-2.421,-0.231
1488,-0.763,4.269,8.797,5.167,-2.008,-0.781
1498,-0.770,4.274,8.741,3.457,-1.321,-0.796
1508,-0.764,4.314,8.735,0.816,-0.451,-0.323
1518,-0.762,4.324,8.725,-2.177,0.770,0.028
1528,-0.773,4.288,8.741,-4.757,1.793,0.319
1538,-0.800,4.233,8.777,-6.253,2.419,0.380
1548,-0.803,4.190,8.841,-6.238,2.679,0.364
1558,-0.801,4.138,8.879,-4.696,2.480,0.151
1568,-0.806,4.122,8.890,-2.100,1.564,-0.216
1578,-0.806,4.150,8.895,0.648,0.404,-0.597
1588,-0.836,4.159,8.832,2.861,-0.863,-0.964
1598,-0.829,4.183,8.809,4.129,-1.749,-0.903
1608,-0.824,4.220,8.769,4.083,-2.207,-0.414
1618,-0.837,4.241,8.769,2.816,-2.039,0.410
1628,-0.818,4.273,8.768,0.785,-1.383,1.250
1638,-0.775,4.274,8.745,-1.322,-0.619,1.815
1648,-0.769,4.252,8.797,-2.879,0.251,1.967
1658,-0.770,4.233,8.838,-3.581,0.862,1.784
1668,-0.749,4.204,8.871,-3.230,0.953,1.265
1678,-0.755,4.198,8.881,-2.024,0.831,0.334
1688,-0.768,4.190,8.871,-0.513,0.556,-0.689
1698,-0.781,4.210,8.876,0.831,0.282,-1.437
1708,-0.793,4.211,8.839,1.533,0.068,-1.804
1718,-0.804,4.229,8.799,1.442,0.236,-1.758
1728,-0.830,4.241,8.773,0.785,0.419,-1.223
1738,-0.830,4.229,8.773,-0.452,0.541,-0.430
1748,-0.831,4.223,8.766,-1.703,0.572,0.364
1758,-0.827,4.217,8.787,-2.589,0.358,1.112
1768,-0.828,4.196,8.798,-2.681,0.114,1.555
1778,-0.817,4.174,8.833,-2.100,-0.176,1.723
1788,-0.789,4.185,8.875,-0.910,-0.543,1.479
1798,-0.774,4.183,8.888,0.541,-0.848,1.006
1808,-0.774,4.189,8.846,1.716,-1.001,0.334
1818,-0.772,4.225,8.820,2.388,-0.955,-0.185
1828,-0.772,4.231,8.800,2.281,-0.772,-0.536
1838,-0.784,4.255,8.781,1.426,-0.375,-0.597
1848,-0.788,4.280,8.735,0.068,0.159,-0.613
1858,-0.788,4.274,8.760,-1.581,0.770,-0.430
1868,-0.798,4.233,8.785,-2.955,1.167,-0.094
1878,-0.821,4.215,8.806,-3.642,1.488,0.135
1888,-0.818,4.166,8.823,-3.536,1.534,0.319
1898,-0.827,4.172,8.872,-2.635,1.228,0.242
1908,-0.828,4.166,8.869,-1.184,0.587,0.135
1918,-0.846,4.161,8.864,0.327,-0.054,-0.002
1928,-0.834,4.174,8.830,1.777,-0.818,-0.063
1938,-0.825,4.197,8.787,2.388,-1.291,0.028
1948,-0.816,4.220,8.774,2.205,-1.398,0.212
1958,-0.809,4.258,8.771,1.411,-1.230,0.502
1968,-0.781,4.255,8.784,0.190,-0.726,0.777
1978,-0.770,4.251,8.809,-1.062,-0.161,0.929
1988,-0.774,4.239,8.820,-2.009,0.343,0.945
1998,-0.774,4.229,8.851,-2.375,0.663,0.761
2008,-0.766,4.220,8.830,-2.238,0.877,0.349
2018,-0.789,4.192,8.797,-1.597,0.785,-0.109
2048,-0.799,4.207,8.828,0.541,0.312,-0.933
2058,-0.813,4.219,8.793,0.587,0.190,-0.781
2068,-0.809,4.210,8.808,0.236,0.083,-0.430
2078,-0.798,4.241,8.779,-0.268,0.053,0.090
2088,-0.807,4.229,8.788,-0.848,-0.070,0.624
2098,-0.804,4.219,8.794,-1.230,-0.146,0.960
2108,-0.816,4.189,8.796,-1.291,-0.299,1.097
2118,-0.782,4.196,8.812,-0.971,-0.314,1.082
2128,-0.767,4.201,8.814,-0.452,-0.451,0.853
2138,-0.764,4.198,8.835,0.129,-0.390,0.471
2148,-0.776,4.208,8.869,0.602,-0.329,0.074
2158,-0.778,4.226,8.822,0.770,-0.237,-0.185
2168,-0.779,4.228,8.784,0.632,0.007,-0.430
2178,-0.803,4.235,8.784,0.052,0.221,-0.536
2188,-0.799,4.256,8.784,-0.696,0.450,-0.430
2198,-0.818,4.227,8.784,-1.474,0.694,-0.307
2208,-0.809,4.227,8.810,-2.024,0.816,-0.002
2218,-0.811,4.219,8.814,-2.177,0.770,0.212
2228,-0.800,4.210,8.836,-1.841,0.648,0.349
2238,-0.811,4.191,8.850,-1.184,0.312,0.395
2248,-0.815,4.196,8.857,-0.284,-0.070,0.319
2257,-0.817,4.197,8.845,0.541,-0.482,0.273
2268,-0.810,4.192,8.821,1.121,-0.741,0.273
2278,-0.791,4.237,8.762,1.258,-0.833,0.273
2288,-0.782,4.246,8.760,0.953,-0.726,0.273
2298,-0.775,4.246,8.784,0.373,-0.466,0.410
2308,-0.769,4.241,8.786,-0.436,-0.161,0.456
2318,-0.782,4.257,8.784,-1.139,0.175,0.441
2328,-0.781,4.238,8.802,-1.581,0.495,0.349
2338,-0.766,4.215,8.830,-1.749,0.663,0.196
2348,-0.781,4.211,8.845,-1.566,0.663,-0.002
2358,-0.782,4.203,8.818,-1.169,0.602,-0.216
2368,-0.794,4.201,8.851,-0.589,0.465,-0.384
2378,-0.798,4.197,8.830,-0.100,0.297,-0.430
2388,-0.807,4.183,8.822,0.159,0.114,-0.323
2398,-0.804,4.211,8.806,0.190,-0.054,-0.124
2408,-0.793,4.223,8.805,0.006,-0.115,0.151
2418,-0.809,4.226,8.791,-0.268,-0.253,0.441
2428,-0.810,4.217,8.787,-0.543,-0.192,0.670
2438,-0.804,4.213,8.800,-0.757,-0.222,0.807
2448,-0.805,4.215,8.785,-0.848,-0.176,0.807
2458,-0.803,4.215,8.822,-0.665,-0.192,0.670
2468,-0.804,4.220,8.824,-0.406,-0.131,0.380
2478,-0.793,4.201,8.826,-0.131,-0.054,0.151
2488,-0.784,4.208,8.811,0.052,0.007,-0.124
2498,-0.784,4.217,8.808,0.037,0.144,-0.323
2508,-0.779,4.221,8.815,-0.146,0.221,-0.353
2518,-0.775,4.227,8.808,-0.513,0.358,-0.307
2528,-0.776,4.205,8.780,-0.879,0.419,-0.201
2538,-0.799,4.211,8.784,-1.154,0.495,-0.048
2548,-0.799,4.223,8.805,-1.306,0.465,0.151
2558,-0.798,4.219,8.811,-1.230,0.327,0.303
2568,-0.793,4.190,8.836,-0.894,0.098,0.425
2578,-0.815,4.198,8.828,-0.421,-0.054,0.380
2588,-0.794,4.203,8.824,0.006,-0.314,0.319
2598,-0.817,4.213,8.820,0.388,-0.482,0.288
2608,-0.788,4.213,8.786,0.541,-0.482,0.181
2618,-0.795,4.223,8.810,0.465,-0.360,0.181
2628,-0.816,4.247,8.768,0.098,-0.253,0.242
2638,-0.800,4.220,8.791,-0.345,-0.054,0.212
2648,-0.800,4.215,8.765,-0.787,0.159,0.227
2658,-0.807,4.220,8.790,-1.169,0.312,0.196
2668,-0.792,4.203,8.808,-1.306,0.419,0.135
2678,-0.789,4.208,8.829,-1.276,0.465,0.044
2688,-0.810,4.202,8.834,-1.001,0.450,-0.063
2698,-0.804,4.192,8.812,-0.665,0.297,-0.139
2708,-0.807,4.210,8.827,-0.360,0.175,-0.155
2718,-0.787,4.214,8.841,-0.070,-0.008,-0.078
2728,-0.805,4.209,8.811,0.129,-0.070,0.028
2738,-0.804,4.231,8.791,0.006,-0.176,0.257
2748,-0.805,4.208,8.809,-0.177,-0.283,0.364
2758,-0.815,4.226,8.814,-0.360,-0.207,0.502
2768,-0.799,4.231,8.791,-0.543,-0.115,0.532
2778,-0.787,4.226,8.842,-0.665,-0.100,0.486
2788,-0.780,4.223,8.839,-0.711,0.007,0.471
2798,-0.769,4.223,8.828,-0.635,0.053,0.303
2808,-0.784,4.211,8.820,-0.497,0.007,0.151
2818,-0.797,4.202,8.838,-0.329,0.098,-0.078
2828,-0.789,4.197,8.815,-0.329,0.190,-0.201
2838,-0.788,4.215,8.790,-0.314,0.236,-0.231
2848,-0.785,4.208,8.816,-0.421,0.236,-0.170
2858,-0.792,4.210,8.824,-0.619,0.312,-0.063
2868,-0.810,4.208,8.794,-0.772,0.236,0.074
2878,-0.805,4.198,8.811,-0.848,0.221,0.181
2888,-0.798,4.202,8.814,-0.818,0.114,0.273
2898,-0.794,4.194,8.808,-0.696,0.007,0.425
2908,-0.806,4.198,8.818,-0.482,-0.161,0.441
2918,-0.795,4.202,8.835,-0.161,-0.237,0.410
2928,-0.787,4.203,8.799,0.037,-0.237,0.334
2938,-0.804,4.229,8.823,0.144,-0.299,0.196
2948,-0.788,4.228,8.784,0.022,-0.192,0.196
2958,-0.792,4.226,8.811,-0.131,-0.070,0.166
2968,-0.786,4.213,8.792,-0.406,0.068,0.105
2978,-0.788,4.209,8.799,-0.665,0.190,0.059
2988,-0.789,4.221,8.793,-0.910,0.236,0.044
2998,-0.798,4.220,8.821,-1.047,0.312,0.074
3008,-0.794,4.228,8.802,-1.062,0.343,0.028
3018,-0.803,4.223,8.821,-0.925,0.297,-0.002
3048,-0.805,4.202,8.815,-0.146,-0.054,0.105
3058,-0.791,4.213,8.793,-0.024,-0.146,0.196
3068,-0.799,4.214,8.798,-0.009,-0.207,0.257
3078,-0.797,4.223,8.806,-0.131,-0.222,0.303
3088,-0.800,4.213,8.780,-0.284,-0.207,0.364
3098,-0.804,4.229,8.822,-0.482,-0.115,0.380
3108,-0.784,4.229,8.786,-0.604,-0.054,0.319
3118,-0.781,4.229,8.788,-0.681,-0.008,0.273
3128,-0.797,4.241,8.817,-0.650,0.129,0.166
3138,-0.791,4.232,8.840,-0.589,0.159,0.105
3148,-0.784,4.228,8.817,-0.482,0.175,-0.002
3158,-0.795,4.200,8.863,-0.436,0.159,-0.078
3168,-0.786,4.207,8.810,-0.375,0.159,-0.078
3178,-0.788,4.209,8.779,-0.467,0.144,-0.109
3188,-0.786,4.231,8.793,-0.513,0.129,0.013
3198,-0.785,4.221,8.809,-0.497,0.129,0.151
3208,-0.793,4.200,8.811,-0.589,0.068,0.242
3218,-0.784,4.205,8.799,-0.635,0.037,0.319
3228,-0.792,4.209,8.792,-0.543,-0.024,0.334
3238,-0.813,4.213,8.841,-0.390,-0.070,0.303
3248,-0.788,4.221,8.848,-0.284,-0.100,0.319
3258,-0.791,4.228,8.797,-0.238,-0.115,0.257
3268,-0.791,4.226,8.784,-0.161,-0.070,0.227
3278,-0.795,4.216,8.816,-0.192,-0.070,0.120
3288,-0.792,4.223,8.824,-0.299,0.068,0.090
3298,-0.803,4.240,8.827,-0.482,0.144,0.028
3308,-0.803,4.237,8.794,-0.665,0.190,0.013
3318,-0.792,4.220,8.817,-0.803,0.175,0.074
3328,-0.804,4.211,8.814,-0.833,0.236,0.120
3338,-0.812,4.225,8.794,-0.818,0.251,0.105
3348,-0.816,4.210,8.814,-0.726,0.159,0.135
3358,-0.817,4.209,8.822,-0.528,0.098,0.151
3368,-0.807,4.202,8.796,-0.406,0.022,0.151
3378,-0.794,4.201,8.827,-0.238,-0.039,0.135
3388,-0.799,4.216,8.788,-0.131,-0.131,0.242
3398,-0.799,4.213,8.781,-0.131,-0.115,0.242
3408,-0.797,4.209,8.805,-0.268,-0.070,0.196
3418,-0.781,4.221,8.802,-0.345,-0.115,0.227
3428,-0.784,4.222,8.780,-0.513,-0.054,0.288
3438,-0.778,4.219,8.816,-0.589,0.037,0.242
3448,-0.775,4.228,8.799,-0.665,0.144,0.166
3458,-0.794,4.223,8.779,-0.665,0.205,0.059
3468,-0.792,4.197,8.797,-0.635,0.205,0.044
3478,-0.785,4.197,8.822,-0.574,0.144,0.013
3488,-0.806,4.204,8.834,-0.467,0.114,-0.048
3498,-0.797,4.211,8.816,-0.406,0.144,-0.017
3508,-0.804,4.195,8.816,-0.390,0.114,0.013
3518,-0.800,4.220,8.799,-0.436,0.022,0.105
3528,-0.798,4.219,8.824,-0.467,0.053,0.166
3538,-0.806,4.204,8.788,-0.467,0.053,0.227
3548,-0.792,4.215,8.791,-0.452,-0.024,0.242
3558,-0.788,4.227,8.805,-0.482,-0.039,0.273
3568,-0.787,4.219,8.793,-0.467,-0.070,0.257
3578,-0.789,4.213,8.797,-0.421,-0.008,0.257
3588,-0.786,4.214,8.828,-0.345,0.037,0.196
3598,-0.788,4.214,8.841,-0.360,0.037,0.135
3608,-0.774,4.221,8.811,-0.375,0.037,0.074
3618,-0.805,4.209,8.811,-0.436,0.098,0.028
3628,-0.795,4.214,8.790,-0.467,0.221,-0.002
3638,-0.784,4.216,8.815,-0.528,0.144,0.059
3648,-0.798,4.235,8.834,-0.665,0.129,0.074
3658,-0.798,4.227,8.829,-0.696,0.175,0.135
3668,-0.792,4.221,8.814,-0.619,0.175,0.135
3678,-0.801,4.213,8.816,-0.589,0.098,0.181
3688,-0.797,4.215,8.820,-0.452,0.068,0.181
3698,-0.793,4.222,8.808,-0.390,-0.039,0.196
3708,-0.799,4.219,8.833,-0.299,-0.008,0.227
3718,-0.798,4.234,8.809,-0.238,-0.054,0.227
3728,-0.801,4.231,8.806,-0.253,-0.115,0.227
3738,-0.791,4.221,8.812,-0.299,-0.039,0.212
3748,-0.793,4.225,8.836,-0.390,-0.024,0.196
3758,-0.803,4.228,8.805,-0.467,0.007,0.151
3768,-0.804,4.228,8.829,-0.558,0.037,0.212
3778,-0.791,4.223,8.821,-0.589,0.129,0.166
3788,-0.779,4.205,8.828,-0.619,0.221,0.120
3798,-0.801,4.201,8.829,-0.589,0.159,0.135
3808,-0.822,4.211,8.829,-0.604,0.083,0.059
3818,-0.804,4.201,8.796,-0.452,0.098,0.074
3828,-0.793,4.225,8.811,-0.406,0.053,0.059
3838,-0.792,4.231,8.810,-0.390,0.053,0.074
3848,-0.804,4.215,8.796,-0.390,0.037,0.181
3858,-0.793,4.200,8.832,-0.390,0.053,0.212
3868,-0.799,4.217,8.809,-0.421,0.007,0.242
3878,-0.788,4.216,8.806,-0.421,0.007,0.257
3888,-0.800,4.225,8.804,-0.436,-0.024,0.227
3898,-0.786,4.234,8.818,-0.390,-0.024,0.242
3908,-0.799,4.226,8.810,-0.467,0.007,0.212
3918,-0.792,4.225,8.821,-0.482,0.022,0.212
3928,-0.791,4.225,8.844,-0.497,0.083,0.166
3938,-0.801,4.203,8.810,-0.436,0.114,0.090
3948,-0.800,4.221,8.786,-0.375,0.144,0.074
3958,-0.806,4.196,8.822,-0.452,0.159,0.059
3968,-0.813,4.210,8.809,-0.482,0.007,0.120
3978,-0.784,4.213,8.818,-0.528,0.053,0.135
3988,-0.781,4.231,8.832,-0.528,0.114,0.166
3998,-0.786,4.215,8.806,-0.558,0.098,0.166
4008,-0.807,4.215,8.827,-0.558,0.068,0.181
4018,-0.803,4.228,8.830,-0.543,0.053,0.212
4048,-0.806,4.216,8.814,-0.238,-0.039,0.151
4058,-0.785,4.216,8.815,-0.284,-0.100,0.120
4068,-0.794,4.225,8.857,-0.314,-0.008,0.135
4078,-0.818,4.240,8.828,-0.345,-0.039,0.120
4088,-0.805,4.233,8.836,-0.513,0.098,0.166
4098,-0.807,4.216,8.818,-0.589,0.159,0.151
4108,-0.795,4.221,8.814,-0.604,0.144,0.135
4118,-0.793,4.215,8.826,-0.619,0.114,0.120
4128,-0.799,4.227,8.821,-0.604,0.129,0.135
4138,-0.781,4.209,8.817,-0.482,0.098,0.151
4148,-0.789,4.226,8.827,-0.452,0.068,0.120
4158,-0.787,4.216,8.816,-0.452,0.068,0.151
4168,-0.775,4.217,8.798,-0.360,0.037,0.166
4178,-0.784,4.226,8.823,-0.345,0.037,0.181
4188,-0.818,4.216,8.810,-0.345,0.037,0.227
4198,-0.810,4.213,8.808,-0.360,-0.008,0.227
4208,-0.818,4.222,8.792,-0.436,-0.008,0.257
4218,-0.791,4.220,8.823,-0.482,0.022,0.166
4228,-0.799,4.231,8.820,-0.543,0.083,0.196
4238,-0.786,4.233,8.865,-0.574,0.098,0.212
4248,-0.791,4.203,8.853,-0.543,0.129,0.135
4258,-0.803,4.196,8.811,-0.497,0.159,0.120
4268,-0.807,4.226,8.800,-0.467,0.083,0.090
4278,-0.818,4.220,8.794,-0.497,0.068,0.059
4288,-0.809,4.207,8.829,-0.436,0.022,0.059
4298,-0.794,4.215,8.811,-0.375,0.037,0.105
4308,-0.801,4.227,8.812,-0.421,0.068,0.105
4318,-0.803,4.215,8.810,-0.452,0.129,0.151
4328,-0.791,4.217,8.786,-0.513,0.037,0.166
4338,-0.803,4.209,8.806,-0.574,0.068,0.151
4348,-0.800,4.226,8.804,-0.467,0.037,0.212
4358,-0.805,4.228,8.790,-0.421,0.007,0.181
4368,-0.801,4.228,8.778,-0.436,0.007,0.181
4378,-0.792,4.228,8.797,-0.375,-0.008,0.181
4388,-0.786,4.222,8.823,-0.375,-0.008,0.135
4398,-0.800,4.213,8.820,-0.360,0.022,0.181
4408,-0.801,4.210,8.800,-0.390,0.053,0.151
4418,-0.789,4.221,8.841,-0.482,0.098,0.166
4428,-0.797,4.229,8.800,-0.528,0.098,0.166
4438,-0.800,4.221,8.835,-0.574,0.144,0.181
4448,-0.793,4.227,8.809,-0.558,0.114,0.181
4458,-0.800,4.195,8.823,-0.543,0.083,0.151
4468,-0.797,4.216,8.827,-0.482,0.053,0.181
4478,-0.780,4.233,8.814,-0.436,0.068,0.212
4488,-0.786,4.228,8.798,-0.436,0.083,0.196
4498,-0.785,4.219,8.814,-0.360,0.053,0.120
4508,-0.799,4.232,8.810,-0.329,0.053,0.181
4518,-0.781,4.213,8.821,-0.360,0.053,0.166
4528,-0.788,4.207,8.773,-0.436,0.037,0.181
4538,-0.793,4.214,8.800,-0.406,0.083,0.151
4548,-0.784,4.205,8.816,-0.482,0.114,0.166
4558,-0.806,4.213,8.824,-0.543,0.114,0.105
4568,-0.800,4.214,8.827,-0.619,0.098,0.181
4578,-0.807,4.197,8.840,-0.558,0.083,0.105
4588,-0.804,4.211,8.834,-0.497,0.144,0.135
4598,-0.784,4.240,8.816,-0.406,0.068,0.135
4608,-0.798,4.219,8.810,-0.436,0.022,0.151
4618,-0.806,4.216,8.806,-0.406,0.007,0.151
4628,-0.794,4.228,8.822,-0.390,0.022,0.166
4638,-0.807,4.228,8.826,-0.406,0.068,0.135
4648,-0.794,4.208,8.842,-0.421,0.037,0.181
4658,-0.789,4.225,8.844,-0.467,0.083,0.166
4668,-0.810,4.219,8.840,-0.482,0.083,0.227
4678,-0.800,4.238,8.822,-0.497,0.053,0.212
4688,-0.807,4.222,8.833,-0.482,0.037,0.227
4698,-0.800,4.214,8.832,-0.452,0.037,0.151
4708,-0.799,4.222,8.841,-0.406,0.053,0.151
4718,-0.801,4.217,8.846,-0.390,0.037,0.120
4728,-0.800,4.228,8.800,-0.406,0.098,0.120
4738,-0.803,4.196,8.787,-0.360,0.083,0.166
4748,-0.795,4.214,8.799,-0.482,0.068,0.135
4758,-0.815,4.213,8.827,-0.513,0.098,0.151
4768,-0.798,4.222,8.826,-0.528,0.068,0.227
4778,-0.800,4.216,8.799,-0.543,0.114,0.120
4788,-0.805,4.214,8.799,-0.528,0.098,0.120
4798,-0.793,4.217,8.790,-0.513,0.083,0.166
4808,-0.792,4.200,8.826,-0.482,0.083,0.151
4818,-0.792,4.220,8.816,-0.467,0.068,0.166
4828,-0.793,4.226,8.829,-0.329,0.037,0.166
4838,-0.797,4.216,8.820,-0.390,0.037,0.151
4848,-0.806,4.211,8.845,-0.436,0.007,0.105
4858,-0.804,4.219,8.829,-0.390,0.037,0.090
4868,-0.801,4.216,8.810,-0.421,0.068,0.105
4878,-0.798,4.211,8.798,-0.467,0.098,0.196
4888,-0.807,4.202,8.771,-0.513,-0.024,0.196
4898,-0.784,4.214,8.798,-0.513,0.083,0.196
4908,-0.807,4.204,8.800,-0.528,0.114,0.181
4918,-0.798,4.214,8.823,-0.482,0.022,0.135
4928,-0.815,4.207,8.833,-0.497,0.068,0.120
4938,-0.788,4.217,8.815,-0.436,0.083,0.120
4948,-0.804,4.198,8.790,-0.421,0.083,0.090
4958,-0.786,4.194,8.834,-0.421,0.098,0.090
4968,-0.786,4.211,8.815,-0.452,0.114,0.120
4978,-0.784,4.216,8.803,-0.467,0.053,0.151
4988,-0.784,4.211,8.838,-0.467,0.022,0.181
4998,-0.780,4.216,8.816,-0.497,0.053,0.181
5008,-0.786,4.219,8.838,-0.513,0.068,0.166
5018,-0.794,4.232,8.836,-0.482,0.037,0.166
5048,-0.797,4.216,8.808,-0.452,0.083,0.135
5058,-0.797,4.207,8.805,-0.452,0.114,0.105
5068,-0.801,4.214,8.809,-0.497,0.114,0.120
5078,-0.805,4.209,8.818,-0.513,0.037,0.151
5088,-0.822,4.208,8.803,-0.497,0.129,0.135
5098,-0.825,4.215,8.803,-0.513,0.098,0.105
5108,-0.818,4.211,8.824,-0.467,0.098,0.120
5118,-0.811,4.211,8.806,-0.513,0.022,0.151
5128,-0.803,4.211,8.824,-0.497,-0.008,0.166
5138,-0.810,4.227,8.835,-0.421,0.037,0.196
5148,-0.780,4.219,8.842,-0.421,0.007,0.151
5158,-0.801,4.211,8.838,-0.421,0.068,0.227
5168,-0.789,4.219,8.817,-0.436,0.068,0.196
5178,-0.799,4.220,8.824,-0.421,0.068,0.151
5188,-0.789,4.220,8.802,-0.375,0.037,0.196
5198,-0.787,4.240,8.828,-0.406,0.053,0.120
5208,-0.811,4.227,8.808,-0.497,0.007,0.135
5218,-0.805,4.215,8.793,-0.497,0.053,0.120
5228,-0.786,4.210,8.797,-0.558,0.129,0.151
5238,-0.792,4.223,8.827,-0.528,0.114,0.166
5248,-0.789,4.208,8.791,-0.497,0.098,0.151
5258,-0.792,4.205,8.800,-0.467,0.114,0.090
5268,-0.794,4.210,8.821,-0.406,0.037,0.090
5278,-0.818,4.210,8.822,-0.406,0.022,0.166
5288,-0.809,4.201,8.804,-0.436,0.022,0.166
5298,-0.798,4.220,8.800,-0.436,0.114,0.120
5308,-0.776,4.217,8.777,-0.452,-0.008,0.151
5318,-0.793,4.219,8.790,-0.452,0.007,0.196
5328,-0.804,4.213,8.779,-0.452,0.022,0.196
5338,-0.806,4.207,8.820,-0.436,0.053,0.151
5348,-0.805,4.222,8.812,-0.436,0.083,0.105
5358,-0.798,4.217,8.847,-0.482,0.068,0.151
5368,-0.780,4.226,8.812,-0.482,0.022,0.135
5378,-0.779,4.228,8.793,-0.467,0.007,0.105
5388,-0.782,4.240,8.791,-0.482,0.068,0.151
5398,-0.797,4.232,8.773,-0.436,0.022,0.151
5408,-0.798,4.216,8.811,-0.452,0.083,0.135
5418,-0.794,4.217,8.822,-0.467,0.053,0.166
5428,-0.789,4.228,8.826,-0.467,0.068,0.166
5438,-0.798,4.225,8.811,-0.467,0.053,0.151
5448,-0.800,4.216,8.792,-0.436,0.037,0.120
5458,-0.815,4.234,8.822,-0.497,0.053,0.151
5468,-0.798,4.233,8.794,-0.467,0.037,0.151
5478,-0.798,4.217,8.783,-0.482,0.022,0.151
5488,-0.788,4.209,8.810,-0.436,0.068,0.120
5498,-0.800,4.215,8.808,-0.436,0.068,0.151
5508,-0.792,4.238,8.810,-0.467,0.037,0.120
5518,-0.794,4.226,8.808,-0.452,0.037,0.135
5528,-0.792,4.227,8.829,-0.452,0.083,0.151
5538,-0.791,4.220,8.798,-0.482,0.068,0.135
5548,-0.798,4.213,8.799,-0.482,0.098,0.105
5558,-0.805,4.238,8.830,-0.513,0.098,0.135
5568,-0.803,4.220,8.830,-0.513,0.114,0.135
5578,-0.789,4.208,8.852,-0.482,-0.008,0.151
5588,-0.805,4.198,8.818,-0.421,0.053,0.135
5598,-0.792,4.215,8.814,-0.406,0.053,0.166
5608,-0.787,4.231,8.810,-0.406,0.022,0.120
5618,-0.815,4.217,8.800,-0.406,0.037,0.135
5628,-0.811,4.219,8.800,-0.421,0.114,0.151
5638,-0.817,4.213,8.798,-0.452,0.098,0.181
5648,-0.795,4.214,8.808,-0.452,0.053,0.120
5658,-0.795,4.207,8.810,-0.467,0.068,0.105
5668,-0.799,4.205,8.792,-0.497,0.022,0.135
5678,-0.779,4.203,8.800,-0.497,0.053,0.135
5688,-0.778,4.204,8.817,-0.482,0.053,0.196
5698,-0.778,4.216,8.818,-0.436,0.037,0.151
5708,-0.798,4.216,8.817,-0.467,0.083,0.166
5718,-0.806,4.223,8.804,-0.467,0.037,0.135
5728,-0.793,4.229,8.802,-0.406,-0.024,0.135
5738,-0.801,4.197,8.828,-0.436,0.098,0.135
5748,-0.813,4.208,8.792,-0.436,0.083,0.151
5758,-0.795,4.221,8.821,-0.513,0.068,0.151
5768,-0.804,4.220,8.840,-0.513,0.022,0.151
5778,-0.798,4.222,8.797,-0.482,0.022,0.181
5788,-0.805,4.213,8.806,-0.482,0.098,0.166
5798,-0.798,4.217,8.816,-0.452,0.037,0.181
5808,-0.806,4.195,8.816,-0.390,0.053,0.181
5818,-0.801,4.210,8.804,-0.467,0.022,0.135
5828,-0.813,4.192,8.809,-0.452,0.022,0.105
5838,-0.789,4.190,8.799,-0.436,0.114,0.135
5848,-0.825,4.219,8.812,-0.421,0.083,0.120
5858,-0.807,4.227,8.816,-0.436,0.068,0.151
5868,-0.804,4.232,8.822,-0.436,0.098,0.196
5878,-0.800,4.211,8.827,-0.467,0.022,0.151
5888,-0.798,4.215,8.828,-0.482,0.037,0.135
5898,-0.795,4.219,8.840,-0.467,0.144,0.151
5908,-0.787,4.219,8.840,-0.452,0.068,0.151
5918,-0.791,4.216,8.835,-0.436,0.068,0.181
5928,-0.793,4.225,8.812,-0.406,0.037,0.151
5938,-0.779,4.221,8.812,-0.436,0.068,0.135
5948,-0.781,4.226,8.812,-0.436,0.037,0.196
5958,-0.800,4.202,8.817,-0.421,-0.008,0.135
5968,-0.791,4.228,8.798,-0.467,0.037,0.135
5978,-0.786,4.210,8.805,-0.482,0.083,0.166
5988,-0.792,4.219,8.817,-0.497,0.053,0.166
5998,-0.806,4.204,8.828,-0.543,0.098,0.135
6008,-0.800,4.215,8.823,-0.467,0.098,0.135
6018,-0.789,4.216,8.814,-0.482,0.083,0.135
6048,-0.797,4.217,8.827,-0.390,0.022,0.151
6058,-0.782,4.225,8.816,-0.375,-0.008,0.135
6068,-0.791,4.228,8.802,-0.421,-0.054,0.181
6078,-0.779,4.213,8.820,-0.467,0.037,0.166
6088,-0.793,4.202,8.818,-0.452,0.068,0.181
6098,-0.809,4.211,8.818,-0.482,0.068,0.105
6108,-0.812,4.219,8.827,-0.467,0.068,0.166
6118,-0.787,4.226,8.833,-0.497,0.098,0.151
6128,-0.798,4.219,8.839,-0.482,0.098,0.120
6138,-0.789,4.237,8.824,-0.482,0.144,0.151
6148,-0.811,4.229,8.846,-0.421,0.083,0.151
6158,-0.799,4.228,8.846,-0.421,0.083,0.120
6168,-0.792,4.227,8.791,-0.467,0.098,0.151
6178,-0.769,4.207,8.784,-0.452,0.083,0.074
6188,-0.781,4.203,8.785,-0.436,0.053,0.074
6198,-0.805,4.213,8.802,-0.452,0.022,0.151
6208,-0.801,4.227,8.812,-0.482,-0.039,0.166
6218,-0.797,4.217,8.854,-0.497,-0.054,0.151
6228,-0.797,4.222,8.858,-0.452,0.007,0.227
6238,-0.795,4.221,8.817,-0.436,0.068,0.212
6248,-0.795,4.229,8.808,-0.406,0.007,0.151
6258,-0.786,4.225,8.806,-0.421,-0.008,0.120
6268,-0.812,4.235,8.822,-0.406,0.068,0.105
6278,-0.806,4.222,8.850,-0.436,0.083,0.090
6288,-0.767,4.225,8.816,-0.497,0.068,0.074
6298,-0.786,4.222,8.793,-0.513,0.114,0.074
6308,-0.823,4.208,8.822,-0.543,0.159,0.090
6318,-0.810,4.217,8.828,-0.528,0.068,0.120
6328,-0.807,4.229,8.814,-0.528,0.068,0.120
6338,-0.804,4.213,8.824,-0.467,0.007,0.135
6348,-0.791,4.220,8.835,-0.467,0.022,0.166
6358,-0.792,4.214,8.824,-0.406,0.007,0.196
6368,-0.767,4.217,8.822,-0.421,-0.008,0.166
6378,-0.767,4.211,8.818,-0.390,0.022,0.196
6388,-0.789,4.209,8.820,-0.406,0.037,0.135
6398,-0.797,4.221,8.829,-0.375,0.007,0.181
6408,-0.812,4.231,8.832,-0.436,0.022,0.181
6418,-0.785,4.223,8.826,-0.482,0.037,0.196
6428,-0.795,4.225,8.830,-0.528,0.068,0.120
6438,-0.804,4.226,8.839,-0.497,0.098,0.196
6448,-0.795,4.207,8.799,-0.513,0.083,0.212
6458,-0.806,4.220,8.822,-0.513,0.144,0.181
6468,-0.811,4.210,8.811,-0.482,0.129,0.166
6478,-0.781,4.207,8.816,-0.482,0.068,0.105
6488,-0.787,4.222,8.818,-0.436,0.037,0.135
6498,-0.782,4.219,8.812,-0.406,-0.008,0.181
6508,-0.792,4.208,8.809,-0.375,0.022,0.105
6518,-0.791,4.211,8.857,-0.406,0.098,0.135
6528,-0.792,4.226,8.826,-0.436,0.053,0.151
6538,-0.799,4.227,8.829,-0.482,0.037,0.181
6548,-0.801,4.232,8.812,-0.482,0.083,0.181
6558,-0.775,4.222,8.817,-0.513,0.068,0.151
6568,-0.786,4.232,8.824,-0.497,0.068,0.166
6578,-0.799,4.208,8.840,-0.452,0.068,0.120
6588,-0.781,4.204,8.834,-0.452,0.068,0.120
6598,-0.809,4.216,8.803,-0.452,0.083,0.120
6608,-0.812,4.223,8.791,-0.406,0.129,0.151
6618,-0.813,4.211,8.802,-0.452,0.037,0.151
6628,-0.804,4.222,8.821,-0.497,0.068,0.120
6638,-0.798,4.227,8.802,-0.513,0.053,0.166
6648,-0.785,4.244,8.810,-0.497,0.022,0.151
6658,-0.797,4.244,8.805,-0.497,0.007,0.135
6668,-0.794,4.211,8.781,-0.482,0.053,0.166
6678,-0.821,4.192,8.802,-0.482,0.098,0.151
6688,-0.800,4.217,8.827,-0.421,0.083,0.181
6698,-0.797,4.215,8.802,-0.467,0.037,0.181
6708,-0.789,4.229,8.788,-0.452,0.037,0.196
6718,-0.793,4.214,8.810,-0.406,0.037,0.166
6728,-0.791,4.222,8.808,-0.436,0.037,0.166
6738,-0.799,4.219,8.779,-0.467,0.083,0.090
6748,-0.801,4.220,8.787,-0.452,0.098,0.135
6758,-0.795,4.220,8.784,-0.528,0.144,0.181
6768,-0.784,4.216,8.830,-0.528,0.053,0.166
6778,-0.795,4.219,8.827,-0.558,0.068,0.181
6788,-0.801,4.207,8.827,-0.467,0.098,0.151
6798,-0.804,4.227,8.820,-0.452,0.114,0.151
6808,-0.788,4.217,8.847,-0.467,0.053,0.135
6818,-0.774,4.209,8.838,-0.467,0.022,0.151
6828,-0.782,4.220,8.834,-0.390,0.007,0.120
6838,-0.785,4.207,8.832,-0.360,0.114,0.135
6848,-0.794,4.214,8.833,-0.390,0.022,0.151
6858,-0.811,4.207,8.827,-0.436,0.007,0.196
6868,-0.801,4.216,8.838,-0.452,0.022,0.227
6878,-0.805,4.219,8.817,-0.482,0.068,0.166
6888,-0.806,4.211,8.838,-0.497,0.053,0.135
6898,-0.787,4.220,8.799,-0.482,0.083,0.151
6908,-0.780,4.223,8.822,-0.543,0.083,0.166
6918,-0.791,4.217,8.816,-0.543,0.098,0.090
6928,-0.781,4.221,8.830,-0.513,0.098,0.120
6938,-0.786,4.208,8.830,-0.482,0.114,0.151
6948,-0.801,4.223,8.811,-0.467,0.098,0.135
6958,-0.791,4.204,8.820,-0.436,0.114,0.090
6968,-0.786,4.216,8.829,-0.452,0.037,0.105
6978,-0.799,4.222,8.818,-0.421,0.007,0.135
6988,-0.803,4.219,8.788,-0.452,0.007,0.135
6998,-0.805,4.217,8.811,-0.436,0.037,0.151
7008,-0.797,4.217,8.821,-0.406,0.083,0.166
7018,-0.789,4.222,8.852,-0.467,0.053,0.166
7048,-0.789,4.198,8.847,-0.513,0.114,0.135
7058,-0.789,4.227,8.804,-0.436,0.053,0.151
7068,-0.807,4.229,8.817,-0.452,0.037,0.120
7078,-0.791,4.231,8.797,-0.452,0.037,0.135
7088,-0.792,4.222,8.821,-0.482,0.098,0.105
7098,-0.801,4.208,8.800,-0.497,0.068,0.135
7108,-0.792,4.216,8.797,-0.467,0.037,0.181
7118,-0.784,4.213,8.811,-0.497,0.053,0.151
7128,-0.775,4.211,8.799,-0.528,0.114,0.120
7138,-0.798,4.213,8.840,-0.482,0.098,0.120
7148,-0.791,4.213,8.817,-0.467,0.037,0.151
7158,-0.798,4.213,8.814,-0.467,0.022,0.120
7168,-0.792,4.204,8.774,-0.452,-0.008,0.151
7178,-0.804,4.214,8.815,-0.452,0.022,0.151
7188,-0.782,4.207,8.814,-0.375,-0.024,0.196
7198,-0.797,4.227,8.823,-0.421,0.037,0.135
7208,-0.785,4.232,8.818,-0.421,-0.024,0.166
7218,-0.799,4.222,8.778,-0.482,0.007,0.151
7228,-0.781,4.227,8.811,-0.436,0.083,0.120
7238,-0.806,4.217,8.829,-0.436,0.083,0.135
7248,-0.812,4.217,8.830,-0.482,0.083,0.135
7258,-0.805,4.217,8.833,-0.528,0.068,0.151
7268,-0.800,4.210,8.815,-0.528,0.068,0.105
7278,-0.807,4.216,8.797,-0.482,0.114,0.090
7288,-0.797,4.225,8.800,-0.482,0.114,0.135
7298,-0.801,4.228,8.794,-0.482,0.068,0.166
7308,-0.789,4.214,8.846,-0.452,0.083,0.166
7318,-0.797,4.221,8.839,-0.452,0.083,0.196
7328,-0.800,4.222,8.823,-0.436,-0.008,0.196
7338,-0.809,4.221,8.814,-0.421,0.053,0.227
7348,-0.795,4.207,8.821,-0.421,0.007,0.196
7358,-0.787,4.201,8.794,-0.375,0.037,0.181
7368,-0.782,4.203,8.793,-0.452,0.007,0.196
7378,-0.805,4.207,8.838,-0.467,0.007,0.212
7388,-0.797,4.214,8.853,-0.421,0.053,0.181
7398,-0.791,4.221,8.829,-0.421,0.129,0.166
7408,-0.800,4.217,8.823,-0.497,0.098,0.151
7418,-0.792,4.215,8.821,-0.528,0.098,0.105
7428,-0.782,4.215,8.799,-0.528,0.098,0.105
7438,-0.797,4.214,8.805,-0.497,0.098,0.105
7448,-0.788,4.215,8.800,-0.452,0.114,0.105
7458,-0.791,4.214,8.804,-0.513,0.068,0.105
7468,-0.812,4.222,8.808,-0.482,0.083,0.196
7478,-0.792,4.221,8.810,-0.482,0.068,0.166
7488,-0.793,4.217,8.820,-0.452,0.083,0.227
7498,-0.792,4.219,8.799,-0.452,0.083,0.181
7508,-0.784,4.226,8.823,-0.390,0.007,0.212
7518,-0.795,4.210,8.850,-0.375,-0.008,0.181
7528,-0.787,4.189,8.823,-0.436,-0.039,0.151
7538,-0.794,4.210,8.820,-0.436,0.022,0.135
7548,-0.791,4.220,8.804,-0.436,0.083,0.090
7558,-0.804,4.205,8.829,-0.482,0.083,0.120
7568,-0.784,4.204,8.778,-0.589,0.114,0.135
7578,-0.800,4.217,8.796,-0.558,0.083,0.151
7588,-0.797,4.203,8.826,-0.528,0.114,0.105
7598,-0.803,4.205,8.823,-0.467,0.098,0.059
7608,-0.806,4.211,8.784,-0.436,0.098,0.135
7618,-0.798,4.223,8.833,-0.452,0.022,0.105
7628,-0.785,4.213,8.805,-0.421,0.037,0.166
7638,-0.811,4.219,8.798,-0.436,0.037,0.151
7648,-0.786,4.233,8.748,-0.406,0.098,0.166
7658,-0.803,4.221,8.804,-0.390,-0.024,0.196
7668,-0.786,4.208,8.820,-0.406,-0.039,0.227
7678,-0.800,4.215,8.859,-0.421,0.022,0.120
7688,-0.812,4.211,8.836,-0.421,0.022,0.151
7698,-0.780,4.227,8.792,-0.406,0.007,0.151
7708,-0.779,4.222,8.815,-0.452,0.037,0.090
7718,-0.788,4.216,8.838,-0.497,0.068,0.090
7728,-0.812,4.237,8.796,-0.513,0.007,0.105
7738,-0.786,4.223,8.815,-0.513,0.083,0.074
7748,-0.794,4.225,8.809,-0.528,0.144,0.120
7758,-0.804,4.203,8.810,-0.497,0.129,0.090
7768,-0.804,4.211,8.808,-0.513,0.053,0.120
7778,-0.799,4.214,8.805,-0.482,0.098,0.135
7788,-0.815,4.211,8.812,-0.528,0.053,0.196
7798,-0.801,4.211,8.818,-0.436,0.037,0.196
7808,-0.789,4.219,8.817,-0.406,0.053,0.196
7818,-0.803,4.204,8.815,-0.436,0.037,0.212
7828,-0.795,4.209,8.812,-0.452,-0.008,0.181
7838,-0.785,4.233,8.818,-0.406,0.037,0.166
7848,-0.784,4.237,8.797,-0.390,0.083,0.212
7858,-0.798,4.223,8.805,-0.452,0.083,0.181
7868,-0.775,4.211,8.815,-0.482,0.068,0.151
7878,-0.786,4.205,8.797,-0.482,0.053,0.135
7888,-0.786,4.232,8.800,-0.467,0.053,0.166
7898,-0.791,4.205,8.818,-0.528,0.053,0.135
7908,-0.792,4.203,8.832,-0.513,0.129,0.120
7918,-0.797,4.217,8.814,-0.467,0.068,0.166
7928,-0.801,4.216,8.805,-0.452,0.083,0.135
7938,-0.804,4.209,8.821,-0.482,0.007,0.120
7948,-0.816,4.204,8.838,-0.436,0.068,0.120
7958,-0.791,4.207,8.818,-0.421,0.053,0.135
7968,-0.803,4.220,8.802,-0.421,0.022,0.151
7978,-0.798,4.200,8.833,-0.436,-0.008,0.166
7988,-0.801,4.211,8.797,-0.436,0.022,0.166
7998,-0.800,4.222,8.787,-0.436,0.053,0.151
8008,-0.795,4.241,8.786,-0.452,0.083,0.166
8018,-0.809,4.215,8.777,-0.467,0.037,0.166
8048,-0.781,4.205,8.818,-0.513,0.114,0.120
8058,-0.789,4.213,8.823,-0.513,0.083,0.105
8068,-0.793,4.198,8.811,-0.528,0.083,0.120
8078,-0.797,4.219,8.791,-0.482,0.114,0.120
8088,-0.811,4.220,8.808,-0.421,0.144,0.105
8098,-0.818,4.209,8.820,-0.467,0.114,0.105
8108,-0.812,4.210,8.841,-0.452,0.037,0.120
8118,-0.782,4.198,8.809,-0.436,0.037,0.120
8128,-0.792,4.217,8.816,-0.467,0.022,0.181
8138,-0.793,4.208,8.814,-0.467,-0.008,0.196
8148,-0.813,4.208,8.847,-0.482,-0.008,0.166
8158,-0.794,4.211,8.830,-0.421,0.022,0.135
8168,-0.798,4.219,8.827,-0.436,0.068,0.120
8178,-0.785,4.213,8.824,-0.482,-0.008,0.105
8188,-0.794,4.203,8.816,-0.436,0.007,0.105
8198,-0.788,4.225,8.828,-0.421,0.114,0.151
8208,-0.770,4.219,8.791,-0.482,0.144,0.105
8218,-0.789,4.209,8.785,-0.497,0.053,0.090
8228,-0.791,4.226,8.811,-0.497,0.098,0.090
8238,-0.800,4.215,8.818,-0.543,0.068,0.120
8248,-0.779,4.227,8.794,-0.467,0.083,0.166
8258,-0.797,4.209,8.796,-0.467,0.022,0.181
8268,-0.800,4.234,8.815,-0.482,-0.008,0.212
8278,-0.787,4.221,8.842,-0.436,-0.024,0.181
8288,-0.787,4.214,8.857,-0.421,-0.024,0.151
8298,-0.797,4.222,8.839,-0.436,0.053,0.166
8308,-0.800,4.223,8.829,-0.406,0.053,0.135
8318,-0.789,4.209,8.824,-0.452,0.037,0.181
8328,-0.789,4.227,8.784,-0.482,-0.008,0.135
8338,-0.799,4.213,8.791,-0.482,0.037,0.166
8348,-0.812,4.217,8.829,-0.467,0.068,0.196
8358,-0.798,4.207,8.817,-0.467,0.083,0.135
8368,-0.807,4.234,8.823,-0.513,0.037,0.151
8378,-0.775,4.234,8.830,-0.528,0.053,0.181
8388,-0.778,4.233,8.809,-0.543,0.068,0.166
8398,-0.785,4.229,8.826,-0.482,0.083,0.151
8408,-0.788,4.232,8.811,-0.452,0.098,0.105
8418,-0.798,4.223,8.805,-0.452,0.007,0.135
8428,-0.770,4.214,8.823,-0.452,-0.054,0.120
8438,-0.792,4.196,8.812,-0.452,-0.024,0.120
8448,-0.813,4.228,8.812,-0.406,-0.008,0.181
8458,-0.781,4.220,8.781,-0.421,-0.024,0.227
8468,-0.800,4.220,8.781,-0.467,0.007,0.181
8478,-0.795,4.211,8.800,-0.467,-0.024,0.181
8488,-0.791,4.222,8.823,-0.436,0.007,0.151
8498,-0.793,4.219,8.816,-0.482,0.053,0.105
8508,-0.789,4.220,8.812,-0.436,0.083,0.120
8518,-0.797,4.219,8.791,-0.421,0.098,0.120
8528,-0.801,4.223,8.792,-0.497,0.007,0.059
8538,-0.806,4.208,8.768,-0.452,0.083,0.074
8548,-0.811,4.220,8.783,-0.482,0.083,0.074
8558,-0.797,4.221,8.805,-0.513,0.098,0.090
8568,-0.797,4.225,8.815,-0.513,0.083,0.105
8578,-0.800,4.228,8.836,-0.482,0.053,0.151
8588,-0.799,4.228,8.797,-0.482,0.037,0.120
8598,-0.806,4.216,8.798,-0.467,0.083,0.120
8608,-0.801,4.223,8.811,-0.421,0.098,0.135
8618,-0.806,4.216,8.833,-0.406,0.022,0.166
8628,-0.791,4.221,8.840,-0.421,0.007,0.212
8638,-0.793,4.203,8.806,-0.390,-0.039,0.120
8648,-0.806,4.213,8.783,-0.375,0.037,0.135
8658,-0.791,4.219,8.823,-0.406,0.053,0.166
8668,-0.794,4.241,8.828,-0.482,0.053,0.212
8678,-0.795,4.205,8.799,-0.467,-0.008,0.151
8688,-0.798,4.215,8.805,-0.482,0.022,0.120
8698,-0.782,4.216,8.812,-0.513,0.037,0.135
8708,-0.801,4.220,8.805,-0.528,0.068,0.120
8718,-0.798,4.215,8.804,-0.558,0.114,0.120
8728,-0.798,4.213,8.804,-0.528,0.053,0.151
8738,-0.795,4.205,8.817,-0.436,0.098,0.151
8748,-0.799,4.231,8.828,-0.436,0.114,0.166
8758,-0.801,4.220,8.802,-0.436,0.083,0.181
8768,-0.803,4.213,8.823,-0.375,0.053,0.151
8778,-0.806,4.216,8.805,-0.390,0.007,0.120
8788,-0.781,4.227,8.817,-0.436,0.007,0.151
8798,-0.788,4.217,8.846,-0.452,0.022,0.166
8808,-0.785,4.245,8.823,-0.467,0.053,0.166
8818,-0.779,4.214,8.820,-0.467,0.037,0.135
8828,-0.798,4.221,8.820,-0.452,0.083,0.135
8838,-0.804,4.231,8.836,-0.452,0.068,0.151
8848,-0.797,4.216,8.829,-0.497,0.083,0.151
8858,-0.811,4.221,8.818,-0.497,0.068,0.151
8868,-0.799,4.205,8.804,-0.528,0.053,0.090
8878,-0.787,4.222,8.822,-0.528,0.053,0.074
8888,-0.798,4.210,8.812,-0.513,0.129,0.120
8898,-0.816,4.222,8.841,-0.528,0.098,0.074
8908,-0.791,4.215,8.850,-0.467,0.129,0.166
8918,-0.800,4.198,8.814,-0.436,0.083,0.166
8928,-0.811,4.208,8.808,-0.436,0.022,0.242
8938,-0.793,4.213,8.815,-0.390,-0.008,0.166
8948,-0.782,4.216,8.792,-0.375,0.007,0.196
8958,-0.787,4.221,8.792,-0.375,0.037,0.196
8968,-0.786,4.226,8.800,-0.421,0.007,0.212
8978,-0.793,4.232,8.797,-0.452,-0.054,0.181
8988,-0.801,4.215,8.811,-0.452,0.022,0.120
8998,-0.791,4.221,8.842,-0.452,0.037,0.090
9008,-0.791,4.215,8.820,-0.452,0.129,0.090
9018,-0.797,4.216,8.836,-0.497,0.083,0.120
9048,-0.799,4.209,8.811,-0.513,0.098,0.090
9058,-0.791,4.208,8.806,-0.513,0.053,0.135
9068,-0.794,4.207,8.802,-0.482,0.007,0.151
9078,-0.794,4.207,8.829,-0.406,-0.008,0.166
9088,-0.792,4.215,8.811,-0.360,0.022,0.181
9098,-0.793,4.234,8.814,-0.345,-0.024,0.135
9108,-0.778,4.217,8.830,-0.329,0.007,0.196
9118,-0.773,4.233,8.809,-0.421,-0.039,0.151
9128,-0.795,4.210,8.817,-0.482,0.053,0.166
9138,-0.800,4.204,8.798,-0.467,0.098,0.151
9148,-0.801,4.225,8.814,-0.482,0.129,0.166
9158,-0.791,4.232,8.809,-0.497,0.159,0.151
9168,-0.792,4.222,8.821,-0.482,0.159,0.059
9178,-0.822,4.207,8.824,-0.543,0.098,0.044
9188,-0.792,4.211,8.818,-0.528,0.098,0.135
9198,-0.813,4.214,8.810,-0.497,0.098,0.135
9208,-0.798,4.232,8.810,-0.497,0.098,0.151
9218,-0.791,4.214,8.827,-0.436,0.114,0.151
9228,-0.799,4.227,8.816,-0.436,0.022,0.181
9238,-0.801,4.221,8.806,-0.452,-0.008,0.227
9248,-0.811,4.215,8.835,-0.421,0.022,0.196
9258,-0.792,4.225,8.796,-0.406,0.022,0.181
9268,-0.782,4.210,8.810,-0.421,-0.024,0.181
9278,-0.768,4.222,8.830,-0.436,-0.008,0.166
9288,-0.803,4.237,8.816,-0.436,-0.024,0.151
9298,-0.764,4.208,8.790,-0.421,0.007,0.135
9308,-0.778,4.203,8.781,-0.482,0.098,0.135
9318,-0.805,4.227,8.817,-0.467,0.114,0.135
9328,-0.794,4.223,8.815,-0.482,0.175,0.090
9338,-0.779,4.219,8.783,-0.482,0.144,0.059
9348,-0.797,4.225,8.798,-0.482,0.114,0.090
9358,-0.797,4.214,8.833,-0.467,0.114,0.105
9368,-0.793,4.205,8.836,-0.482,0.098,0.120
9378,-0.778,4.223,8.828,-0.482,0.098,0.135
9388,-0.781,4.217,8.809,-0.452,0.007,0.166
9398,-0.805,4.213,8.792,-0.421,0.053,0.181
9408,-0.815,4.203,8.797,-0.421,-0.039,0.166
9418,-0.806,4.216,8.779,-0.406,0.007,0.181
9428,-0.779,4.208,8.815,-0.406,-0.024,0.196
9438,-0.788,4.227,8.839,-0.436,-0.024,0.166
9448,-0.788,4.214,8.817,-0.436,0.007,0.212
9458,-0.776,4.221,8.794,-0.482,0.022,0.166
9468,-0.792,4.222,8.803,-0.513,0.037,0.181
9478,-0.787,4.227,8.810,-0.513,0.098,0.151
9488,-0.793,4.231,8.796,-0.497,0.129,0.120
9498,-0.818,4.211,8.799,-0.497,0.083,0.120
9508,-0.797,4.232,8.794,-0.497,0.129,0.105
9518,-0.785,4.219,8.802,-0.543,0.114,0.120
9528,-0.798,4.215,8.792,-0.482,0.098,0.166
9538,-0.797,4.231,8.790,-0.436,0.053,0.120
9548,-0.789,4.244,8.803,-0.436,-0.008,0.196
9558,-0.800,4.233,8.798,-0.452,-0.039,0.181
9568,-0.788,4.228,8.803,-0.436,0.022,0.227
9578,-0.786,4.211,8.817,-0.406,0.053,0.181
9588,-0.784,4.209,8.783,-0.390,0.007,0.151
9598,-0.789,4.209,8.820,-0.436,0.007,0.120
9608,-0.803,4.226,8.822,-0.482,0.022,0.105
9618,-0.811,4.219,8.809,-0.482,0.053,0.151
9628,-0.781,4.215,8.829,-0.513,0.068,0.105
9638,-0.778,4.210,8.830,-0.513,0.083,0.151
9648,-0.791,4.204,8.823,-0.452,0.037,0.105
9658,-0.801,4.217,8.821,-0.467,0.083,0.105
9668,-0.789,4.221,8.829,-0.482,-0.008,0.135
9678,-0.789,4.219,8.805,-0.467,0.037,0.105
9688,-0.800,4.215,8.818,-0.482,0.083,0.135
9698,-0.799,4.213,8.820,-0.452,0.129,0.120
9708,-0.794,4.222,8.799,-0.452,0.007,0.151
9718,-0.789,4.221,8.791,-0.467,-0.008,0.196
9728,-0.785,4.219,8.821,-0.375,0.022,0.257
9738,-0.785,4.232,8.821,-0.421,0.022,0.196
9748,-0.789,4.198,8.806,-0.406,0.007,0.196
9758,-0.809,4.216,8.796,-0.421,-0.039,0.181
9768,-0.799,4.228,8.804,-0.482,0.037,0.105
9778,-0.788,4.223,8.803,-0.467,0.098,0.166
9788,-0.797,4.231,8.802,-0.497,0.129,0.166
9798,-0.782,4.234,8.787,-0.543,0.098,0.196
9808,-0.784,4.211,8.820,-0.513,0.083,0.151
9818,-0.789,4.214,8.808,-0.482,0.083,0.135
9828,-0.788,4.215,8.848,-0.452,0.083,0.135
9838,-0.781,4.208,8.835,-0.452,0.037,0.166
9848,-0.782,4.209,8.823,-0.406,0.068,0.212
9858,-0.792,4.223,8.800,-0.375,0.037,0.151
9868,-0.797,4.229,8.806,-0.436,0.144,0.212
9878,-0.806,4.220,8.823,-0.421,0.053,0.196
9888,-0.798,4.215,8.840,-0.406,0.022,0.242
9898,-0.805,4.207,8.834,-0.436,0.022,0.166
9908,-0.794,4.222,8.804,-0.436,0.068,0.151
9918,-0.793,4.220,8.828,-0.482,0.083,0.166
9928,-0.793,4.202,8.844,-0.421,0.098,0.181
9938,-0.785,4.215,8.840,-0.467,0.083,0.135
9948,-0.775,4.220,8.830,-0.436,0.083,0.120
9958,-0.766,4.229,8.804,-0.452,0.114,0.166
9968,-0.778,4.223,8.810,-0.497,0.098,0.135
9978,-0.776,4.225,8.808,-0.452,0.068,0.120
9988,-0.776,4.231,8.806,-0.436,0.053,0.166
9998,-0.794,4.227,8.806,-0.421,0.053,0.120
10008,-0.811,4.198,8.820,-0.390,0.007,0.151
10018,-0.811,4.214,8.848,-0.436,0.053,0.181
10048,-0.786,4.228,8.809,-0.436,0.068,0.196
10058,-0.781,4.226,8.815,-0.421,0.098,0.212
10068,-0.822,4.215,8.816,-0.436,0.037,0.151
10078,-0.795,4.213,8.812,-0.390,0.053,0.120
10088,-0.794,4.214,8.808,-0.421,0.053,0.151
10098,-0.811,4.243,8.805,-0.452,0.098,0.135
10108,-0.803,4.213,8.827,-0.513,0.068,0.166
10118,-0.807,4.213,8.824,-0.513,0.037,0.135
10128,-0.809,4.214,8.810,-0.482,0.037,0.166
10138,-0.798,4.210,8.839,-0.452,0.114,0.120
10148,-0.782,4.220,8.839,-0.467,0.114,0.105
10158,-0.797,4.219,8.838,-0.497,0.068,0.090
10168,-0.801,4.226,8.823,-0.482,-0.008,0.120
10178,-0.825,4.210,8.827,-0.482,-0.024,0.135
10188,-0.803,4.215,8.847,-0.482,0.098,0.151
10198,-0.799,4.214,8.817,-0.452,0.098,0.196
10208,-0.791,4.216,8.781,-0.482,0.114,0.181
10218,-0.787,4.210,8.809,-0.452,0.037,0.135
10228,-0.791,4.200,8.814,-0.406,0.068,0.151
10238,-0.780,4.217,8.799,-0.390,0.022,0.151
10248,-0.787,4.217,8.811,-0.390,-0.008,0.181
10258,-0.805,4.225,8.811,-0.421,0.053,0.166
10268,-0.791,4.227,8.810,-0.452,0.022,0.196
10278,-0.801,4.243,8.791,-0.467,0.037,0.196
10288,-0.810,4.226,8.810,-0.452,0.007,0.151
10298,-0.800,4.215,8.826,-0.436,0.037,0.151
10308,-0.797,4.228,8.814,-0.452,0.022,0.166
10318,-0.787,4.226,8.805,-0.452,0.053,0.196
10328,-0.803,4.213,8.793,-0.436,0.068,0.196
10338,-0.782,4.201,8.809,-0.467,0.114,0.151
10348,-0.787,4.211,8.793,-0.421,0.098,0.135
10358,-0.792,4.226,8.809,-0.452,0.114,0.151
10368,-0.784,4.229,8.792,-0.497,0.114,0.151
10378,-0.799,4.229,8.793,-0.497,0.037,0.151
10388,-0.794,4.226,8.796,-0.452,0.083,0.181
10398,-0.806,4.235,8.820,-0.467,0.037,0.151
10408,-0.795,4.214,8.806,-0.421,-0.008,0.166
10418,-0.801,4.222,8.811,-0.375,0.022,0.151
10428,-0.781,4.235,8.794,-0.436,0.037,0.120
10438,-0.791,4.241,8.822,-0.390,0.083,0.135
10448,-0.788,4.222,8.803,-0.406,0.053,0.151
10458,-0.794,4.223,8.841,-0.482,0.129,0.166
10468,-0.778,4.210,8.799,-0.482,0.129,0.151
10478,-0.797,4.226,8.815,-0.482,0.083,0.074
10488,-0.799,4.239,8.808,-0.467,0.007,0.105
10498,-0.822,4.217,8.814,-0.497,0.022,0.120
10508,-0.807,4.220,8.833,-0.497,0.114,0.105
10518,-0.810,4.214,8.824,-0.467,0.098,0.151
10528,-0.785,4.233,8.806,-0.482,0.114,0.135
10538,-0.786,4.213,8.806,-0.467,0.037,0.196
10548,-0.798,4.202,8.811,-0.390,0.083,0.196
10558,-0.807,4.219,8.815,-0.406,0.037,0.227
10568,-0.782,4.228,8.820,-0.421,0.007,0.181
10578,-0.803,4.216,8.816,-0.467,-0.039,0.227
10588,-0.787,4.214,8.827,-0.467,0.037,0.181
10598,-0.800,4.217,8.841,-0.497,0.083,0.120
10608,-0.806,4.227,8.804,-0.482,0.037,0.135
10618,-0.813,4.223,8.793,-0.467,0.068,0.151
10628,-0.801,4.222,8.822,-0.482,0.007,0.120
10638,-0.811,4.220,8.818,-0.482,0.037,0.105
10648,-0.818,4.209,8.846,-0.482,0.083,0.120
10657,-0.803,4.220,8.836,-0.482,0.114,0.135
10668,-0.797,4.216,8.835,-0.452,0.114,0.090
10678,-0.801,4.222,8.808,-0.467,0.129,0.151
10688,-0.806,4.225,8.786,-0.482,0.037,0.151
10698,-0.822,4.216,8.820,-0.452,0.053,0.166
10708,-0.795,4.215,8.829,-0.421,0.007,0.181
10718,-0.815,4.217,8.833,-0.452,0.037,0.196
10728,-0.805,4.228,8.847,-0.375,-0.008,0.242
10738,-0.789,4.205,8.803,-0.406,0.037,0.212
10748,-0.782,4.196,8.797,-0.436,-0.008,0.181
10758,-0.798,4.201,8.818,-0.390,0.114,0.196
10768,-0.788,4.213,8.826,-0.436,0.037,0.135
10778,-0.785,4.209,8.816,-0.436,0.053,0.151
10788,-0.799,4.222,8.781,-0.467,0.068,0.105
10798,-0.785,4.215,8.788,-0.497,0.159,0.120
10808,-0.781,4.211,8.793,-0.558,0.114,0.120
10818,-0.791,4.232,8.806,-0.528,0.114,0.105
10828,-0.792,4.213,8.833,-0.513,0.068,0.120
10838,-0.799,4.222,8.827,-0.497,0.098,0.105
10848,-0.793,4.222,8.823,-0.497,0.098,0.181
10858,-0.805,4.229,8.836,-0.436,0.037,0.151
10868,-0.812,4.216,8.804,-0.406,-0.054,0.166
10878,-0.804,4.222,8.809,-0.375,-0.008,0.166
10888,-0.824,4.216,8.811,-0.375,-0.054,0.212
10898,-0.809,4.205,8.812,-0.390,0.037,0.196
10908,-0.795,4.215,8.824,-0.406,0.068,0.212
10918,-0.788,4.214,8.818,-0.421,0.068,0.166
10928,-0.798,4.215,8.806,-0.482,0.114,0.196
10938,-0.798,4.215,8.814,-0.513,0.098,0.120
10948,-0.807,4.213,8.841,-0.482,0.129,0.135
10958,-0.800,4.216,8.826,-0.497,0.114,0.135
10968,-0.793,4.222,8.827,-0.513,0.083,0.105
10978,-0.779,4.235,8.798,-0.528,0.083,0.044
10988,-0.774,4.214,8.787,-0.497,0.083,0.090
10998,-0.797,4.209,8.834,-0.452,-0.024,0.105
11008,-0.806,4.209,8.824,-0.482,0.083,0.151
11018,-0.784,4.222,8.800,-0.406,0.068,0.196
11048,-0.776,4.209,8.834,-0.406,0.037,0.212
11058,-0.786,4.222,8.793,-0.452,0.007,0.181
11068,-0.798,4.217,8.779,-0.467,0.083,0.151
11078,-0.812,4.200,8.799,-0.467,0.083,0.196
11088,-0.795,4.229,8.822,-0.406,0.098,0.135
11098,-0.817,4.231,8.805,-0.467,0.098,0.120
11108,-0.810,4.215,8.784,-0.467,0.129,0.151
11118,-0.803,4.215,8.818,-0.467,0.083,0.135
11128,-0.800,4.227,8.814,-0.528,0.037,0.074
11138,-0.795,4.215,8.799,-0.482,0.037,0.151
11148,-0.799,4.222,8.822,-0.452,0.129,0.105
11158,-0.803,4.216,8.842,-0.513,0.114,0.120
11168,-0.803,4.208,8.811,-0.497,0.083,0.181
11178,-0.797,4.216,8.818,-0.452,0.037,0.166
11188,-0.781,4.223,8.793,-0.467,0.007,0.166
11198,-0.789,4.221,8.794,-0.421,0.037,0.166
11208,-0.788,4.211,8.804,-0.406,0.007,0.166
11218,-0.787,4.209,8.824,-0.421,0.022,0.196
11228,-0.812,4.210,8.805,-0.452,0.053,0.166
11238,-0.804,4.221,8.805,-0.497,0.053,0.181
11248,-0.811,4.222,8.797,-0.497,0.022,0.151
11258,-0.787,4.220,8.804,-0.452,0.007,0.227
11268,-0.789,4.231,8.823,-0.513,-0.039,0.196
11278,-0.797,4.220,8.810,-0.467,0.037,0.166
11288,-0.785,4.241,8.820,-0.497,0.068,0.212
11298,-0.794,4.231,8.791,-0.452,0.083,0.120
11308,-0.793,4.225,8.814,-0.467,0.053,0.196
11318,-0.785,4.208,8.809,-0.436,0.083,0.196
11328,-0.799,4.221,8.822,-0.436,0.083,0.135
11338,-0.801,4.211,8.803,-0.482,0.098,0.135
11348,-0.809,4.221,8.817,-0.452,0.068,0.181
11358,-0.794,4.210,8.822,-0.452,0.053,0.151
11368,-0.801,4.226,8.812,-0.452,0.022,0.227
11378,-0.789,4.222,8.786,-0.406,0.098,0.196
11388,-0.797,4.216,8.803,-0.390,0.083,0.166
11398,-0.809,4.216,8.824,-0.421,0.037,0.120
11408,-0.799,4.227,8.820,-0.452,0.037,0.135
11418,-0.789,4.225,8.815,-0.482,0.068,0.120
11428,-0.801,4.215,8.810,-0.452,0.053,0.090
11438,-0.794,4.217,8.829,-0.452,0.083,0.135
11448,-0.804,4.222,8.814,-0.482,0.068,0.120
11458,-0.793,4.213,8.826,-0.452,0.083,0.166
11468,-0.798,4.216,8.804,-0.513,0.068,0.135
11478,-0.799,4.204,8.821,-0.436,0.022,0.196
11488,-0.786,4.213,8.820,-0.452,0.114,0.120
11498,-0.795,4.226,8.804,-0.467,0.144,0.120
11508,-0.791,4.223,8.809,-0.467,0.098,0.120
11518,-0.791,4.216,8.823,-0.436,0.083,0.181
11528,-0.792,4.215,8.820,-0.436,0.053,0.120
11538,-0.806,4.210,8.817,-0.482,0.037,0.120
11548,-0.798,4.227,8.821,-0.513,0.083,0.135
11558,-0.800,4.210,8.791,-0.482,0.068,0.196
11568,-0.791,4.219,8.797,-0.452,0.083,0.227
11578,-0.793,4.213,8.812,-0.452,0.144,0.135
11588,-0.793,4.194,8.814,-0.390,0.053,0.212
11598,-0.804,4.223,8.808,-0.406,0.068,0.227
11608,-0.779,4.220,8.803,-0.467,0.053,0.166
11618,-0.781,4.216,8.796,-0.436,0.098,0.151
11628,-0.775,4.208,8.814,-0.467,0.053,0.135
11638,-0.809,4.227,8.823,-0.467,0.083,0.151
11648,-0.792,4.220,8.809,-0.482,0.007,0.135
11658,-0.804,4.244,8.805,-0.467,0.068,0.166
11668,-0.803,4.241,8.809,-0.467,0.098,0.196
11678,-0.793,4.208,8.798,-0.467,0.083,0.151
11688,-0.794,4.214,8.810,-0.482,0.083,0.105
11698,-0.803,4.219,8.806,-0.497,0.068,0.120
11708,-0.789,4.219,8.802,-0.467,0.083,0.135
11718,-0.803,4.226,8.809,-0.467,0.022,0.105
11728,-0.792,4.228,8.826,-0.436,0.022,0.120
11738,-0.788,4.221,8.802,-0.421,0.083,0.105
11748,-0.792,4.215,8.805,-0.436,0.068,0.135
11758,-0.774,4.231,8.812,-0.467,0.037,0.181
11768,-0.788,4.221,8.816,-0.467,0.007,0.120
11778,-0.780,4.235,8.799,-0.421,-0.008,0.151
11788,-0.779,4.211,8.811,-0.436,0.037,0.166
11798,-0.788,4.228,8.832,-0.467,0.053,0.074
11808,-0.784,4.228,8.822,-0.421,0.098,0.105
11818,-0.795,4.227,8.802,-0.436,0.053,0.120
11828,-0.801,4.211,8.811,-0.452,0.068,0.105
11838,-0.795,4.232,8.794,-0.436,0.083,0.135
11848,-0.793,4.234,8.808,-0.482,0.022,0.151
11857,-0.779,4.215,8.811,-0.467,0.037,0.166
11868,-0.792,4.226,8.798,-0.452,0.007,0.212
11878,-0.800,4.221,8.817,-0.452,0.083,0.196
11888,-0.797,4.228,8.812,-0.467,0.007,0.212
11898,-0.794,4.213,8.802,-0.436,0.007,0.151
11908,-0.789,4.197,8.784,-0.497,0.068,0.196
11918,-0.778,4.213,8.798,-0.497,0.083,0.166
11928,-0.778,4.227,8.779,-0.513,0.022,0.166
11938,-0.785,4.211,8.814,-0.452,0.098,0.120
11948,-0.792,4.221,8.822,-0.467,0.098,0.151
11958,-0.785,4.211,8.806,-0.467,0.144,0.120
11968,-0.787,4.211,8.820,-0.452,0.053,0.135
11978,-0.791,4.201,8.818,-0.436,0.068,0.151
11988,-0.789,4.214,8.784,-0.421,0.068,0.090
11998,-0.787,4.215,8.804,-0.452,0.083,0.151
12008,-0.779,4.204,8.793,-0.467,0.022,0.181
12018,-0.766,4.214,8.793,-0.482,0.037,0.120
12048,-0.793,4.217,8.797,-0.452,0.053,0.135
12058,-0.791,4.198,8.809,-0.452,0.037,0.166
12068,-0.780,4.200,8.817,-0.452,0.083,0.120
12078,-0.768,4.209,8.810,-0.436,0.098,0.151
12088,-0.774,4.214,8.824,-0.452,0.053,0.196
12098,-0.778,4.202,8.833,-0.467,0.053,0.181
12108,-0.804,4.205,8.805,-0.482,0.114,0.196
12118,-0.815,4.215,8.790,-0.497,0.037,0.212
12128,-0.800,4.221,8.798,-0.467,0.098,0.212
12138,-0.798,4.207,8.811,-0.452,0.098,0.166
12148,-0.805,4.213,8.818,-0.406,0.022,0.181
12158,-0.803,4.214,8.811,-0.421,-0.039,0.120
12168,-0.805,4.208,8.826,-0.436,0.007,0.120
12178,-0.784,4.226,8.823,-0.421,0.022,0.151
12188,-0.803,4.233,8.834,-0.436,0.022,0.166
12198,-0.795,4.234,8.826,-0.452,-0.008,0.181
12208,-0.789,4.231,8.832,-0.452,-0.008,0.166
12218,-0.787,4.219,8.833,-0.482,0.037,0.166
12228,-0.806,4.211,8.839,-0.452,0.083,0.166
12238,-0.780,4.232,8.803,-0.452,0.098,0.181
12248,-0.786,4.223,8.811,-0.482,0.129,0.166
12258,-0.786,4.223,8.829,-0.467,0.098,0.166
12268,-0.805,4.201,8.822,-0.436,0.007,0.135
12278,-0.804,4.220,8.802,-0.467,0.098,0.135
12288,-0.781,4.209,8.805,-0.421,0.068,0.135
12298,-0.785,4.216,8.815,-0.452,0.068,0.151
12308,-0.798,4.221,8.794,-0.436,0.022,0.196
12318,-0.782,4.207,8.810,-0.436,0.007,0.181
12328,-0.776,4.223,8.809,-0.421,0.022,0.196
12338,-0.791,4.226,8.799,-0.421,0.053,0.181
12348,-0.795,4.227,8.811,-0.452,0.022,0.166
12358,-0.810,4.229,8.793,-0.513,0.083,0.166
12368,-0.799,4.220,8.828,-0.497,0.053,0.166
12378,-0.801,4.222,8.796,-0.482,0.053,0.181
12388,-0.801,4.222,8.788,-0.467,0.114,0.151
12398,-0.792,4.220,8.816,-0.452,0.129,0.151
12408,-0.805,4.222,8.804,-0.467,0.083,0.120
12418,-0.806,4.220,8.815,-0.467,0.037,0.105
12428,-0.787,4.226,8.809,-0.467,0.037,0.166
12438,-0.788,4.223,8.806,-0.452,0.053,0.196
12448,-0.804,4.204,8.803,-0.421,0.022,0.196
12458,-0.807,4.227,8.820,-0.421,-0.054,0.181
12468,-0.775,4.234,8.816,-0.452,0.007,0.166
12478,-0.787,4.214,8.814,-0.436,0.053,0.181
12488,-0.806,4.223,8.822,-0.436,0.083,0.166
12498,-0.794,4.229,8.823,-0.452,0.022,0.166
12508,-0.787,4.216,8.798,-0.497,-0.008,0.135
12518,-0.797,4.221,8.810,-0.467,0.053,0.135
12528,-0.799,4.229,8.792,-0.467,0.053,0.135
12538,-0.792,4.214,8.820,-0.482,0.114,0.074
12548,-0.801,4.202,8.822,-0.497,0.083,0.120
12558,-0.793,4.205,8.756,-0.467,0.098,0.135
12568,-0.792,4.200,8.808,-0.528,0.053,0.120
12578,-0.793,4.237,8.803,-0.452,0.053,0.151
12588,-0.811,4.226,8.811,-0.436,0.022,0.135
12598,-0.798,4.216,8.805,-0.452,-0.008,0.166
12608,-0.792,4.210,8.818,-0.436,-0.024,0.196
12618,-0.787,4.208,8.820,-0.406,-0.039,0.212
12628,-0.786,4.246,8.821,-0.360,-0.008,0.227
12638,-0.784,4.216,8.846,-0.390,0.007,0.151
12648,-0.800,4.221,8.799,-0.436,0.053,0.181
12658,-0.795,4.228,8.805,-0.390,0.053,0.151
12668,-0.799,4.213,8.798,-0.436,0.037,0.120
12678,-0.803,4.220,8.833,-0.436,0.053,0.166
12688,-0.794,4.223,8.800,-0.497,0.129,0.151
12698,-0.785,4.223,8.827,-0.558,0.098,0.151
12708,-0.782,4.215,8.785,-0.558,0.098,0.166
12718,-0.791,4.219,8.826,-0.528,0.007,0.151
12728,-0.799,4.228,8.815,-0.452,0.022,0.151
12738,-0.797,4.207,8.830,-0.452,0.007,0.196
12748,-0.791,4.223,8.827,-0.406,0.007,0.135
12758,-0.811,4.208,8.814,-0.436,0.022,0.166
12768,-0.811,4.205,8.844,-0.421,0.022,0.135
12778,-0.813,4.217,8.815,-0.436,0.068,0.166
12788,-0.805,4.213,8.823,-0.436,0.053,0.166
12798,-0.806,4.209,8.804,-0.436,0.068,0.196
12808,-0.781,4.209,8.771,-0.436,0.037,0.196
12818,-0.778,4.205,8.806,-0.421,0.022,0.181
12828,-0.786,4.234,8.803,-0.482,0.083,0.151
12838,-0.804,4.229,8.829,-0.467,0.083,0.105
12848,-0.812,4.226,8.824,-0.452,0.068,0.120
12858,-0.824,4.216,8.835,-0.436,0.053,0.105
12868,-0.797,4.223,8.832,-0.497,0.083,0.059
12878,-0.800,4.219,8.812,-0.421,0.083,0.151
12888,-0.785,4.222,8.828,-0.452,0.114,0.212
12898,-0.800,4.237,8.823,-0.436,0.053,0.120
12908,-0.825,4.211,8.794,-0.467,0.053,0.120
12918,-0.798,4.214,8.811,-0.436,0.022,0.105
12928,-0.801,4.233,8.822,-0.482,0.037,0.151
12938,-0.791,4.237,8.805,-0.497,0.053,0.196
12948,-0.797,4.249,8.820,-0.452,0.022,0.242
12958,-0.795,4.252,8.833,-0.406,0.083,0.196
12968,-0.803,4.221,8.814,-0.452,0.053,0.151
12978,-0.804,4.209,8.811,-0.467,0.053,0.135
12988,-0.792,4.195,8.805,-0.482,0.007,0.181
12998,-0.775,4.214,8.779,-0.513,0.098,0.074
13008,-0.786,4.223,8.797,-0.528,0.114,0.120
13018,-0.807,4.219,8.816,-0.497,0.098,0.151
13048,-0.805,4.211,8.815,-0.467,0.022,0.166
13058,-0.795,4.214,8.805,-0.452,-0.039,0.166
13068,-0.789,4.227,8.827,-0.421,-0.085,0.105
13078,-0.793,4.235,8.839,-0.421,0.022,0.181
13088,-0.778,4.240,8.829,-0.390,0.022,0.166
13098,-0.789,4.215,8.834,-0.406,0.007,0.166
13108,-0.799,4.228,8.804,-0.452,-0.008,0.212
13118,-0.786,4.226,8.808,-0.452,-0.008,0.212
13128,-0.794,4.234,8.822,-0.452,0.007,0.181
13138,-0.795,4.240,8.809,-0.482,0.022,0.166
13148,-0.782,4.241,8.791,-0.467,0.053,0.135
13158,-0.797,4.227,8.794,-0.497,0.083,0.120
13168,-0.797,4.245,8.802,-0.467,0.068,0.151
13178,-0.803,4.231,8.822,-0.467,0.098,0.120
13188,-0.782,4.221,8.827,-0.436,0.129,0.090
13198,-0.788,4.211,8.836,-0.467,0.129,0.074
13208,-0.780,4.228,8.826,-0.513,0.114,0.120
13218,-0.792,4.219,8.799,-0.482,0.053,0.196
13228,-0.794,4.227,8.827,-0.452,0.068,0.196
13238,-0.803,4.226,8.828,-0.436,0.068,0.166
13248,-0.795,4.219,8.812,-0.452,0.037,0.151
13258,-0.801,4.217,8.814,-0.421,0.022,0.105
13268,-0.772,4.203,8.785,-0.406,0.068,0.151
13278,-0.797,4.208,8.804,-0.467,0.037,0.181
13288,-0.785,4.211,8.816,-0.436,-0.039,0.166
13298,-0.776,4.217,8.817,-0.467,-0.024,0.120
13308,-0.781,4.209,8.797,-0.452,0.022,0.212
13318,-0.801,4.225,8.826,-0.452,0.053,0.181
13328,-0.799,4.220,8.830,-0.406,0.007,0.120
13338,-0.800,4.227,8.817,-0.452,0.068,0.105
13348,-0.794,4.216,8.805,-0.467,0.068,0.090
13358,-0.793,4.231,8.799,-0.436,0.098,0.166
13368,-0.793,4.226,8.808,-0.421,0.083,0.181
13378,-0.784,4.214,8.828,-0.452,0.053,0.151
13388,-0.787,4.214,8.821,-0.452,0.053,0.151
13398,-0.800,4.234,8.834,-0.467,0.083,0.151
13408,-0.804,4.210,8.797,-0.452,-0.008,0.227
13418,-0.789,4.205,8.804,-0.406,0.037,0.166
13428,-0.792,4.214,8.812,-0.375,0.007,0.151
13438,-0.778,4.234,8.812,-0.406,0.037,0.166
13448,-0.809,4.220,8.818,-0.421,0.007,0.151
13458,-0.799,4.213,8.814,-0.452,0.022,0.151
13468,-0.810,4.217,8.835,-0.467,0.037,0.120
13478,-0.805,4.209,8.799,-0.467,0.053,0.151
13488,-0.784,4.217,8.827,-0.467,0.037,0.135
13498,-0.770,4.233,8.817,-0.452,0.114,0.166
13508,-0.786,4.214,8.834,-0.513,0.068,0.135
13518,-0.786,4.211,8.826,-0.528,0.068,0.151
13528,-0.798,4.222,8.804,-0.452,0.083,0.151
13538,-0.800,4.209,8.820,-0.421,0.098,0.135
13548,-0.799,4.228,8.811,-0.421,0.083,0.181
13558,-0.789,4.219,8.794,-0.482,0.007,0.166
13568,-0.795,4.202,8.809,-0.452,-0.008,0.196
13578,-0.804,4.208,8.821,-0.406,0.022,0.181
13588,-0.807,4.204,8.804,-0.421,0.053,0.196
13598,-0.788,4.217,8.814,-0.421,0.007,0.135
13608,-0.781,4.222,8.788,-0.452,-0.008,0.212
13618,-0.784,4.217,8.822,-0.421,-0.054,0.196
13628,-0.792,4.200,8.817,-0.452,0.037,0.135
13638,-0.784,4.217,8.812,-0.467,0.053,0.135
13648,-0.785,4.226,8.828,-0.528,0.083,0.105
13658,-0.807,4.232,8.842,-0.513,0.144,0.166
13668,-0.811,4.213,8.820,-0.513,0.098,0.181
13678,-0.818,4.200,8.796,-0.513,0.098,0.151
13688,-0.804,4.216,8.827,-0.482,0.083,0.151
13698,-0.807,4.215,8.823,-0.497,0.053,0.120
13708,-0.795,4.201,8.800,-0.452,0.053,0.105
13718,-0.781,4.190,8.823,-0.421,0.098,0.105
13728,-0.779,4.202,8.838,-0.452,-0.008,0.166
13738,-0.804,4.214,8.798,-0.406,0.022,0.151
13748,-0.794,4.214,8.824,-0.436,-0.039,0.196
13758,-0.792,4.223,8.821,-0.406,0.053,0.151
13768,-0.788,4.214,8.866,-0.390,0.068,0.166
13778,-0.799,4.204,8.840,-0.467,0.083,0.151
13788,-0.803,4.225,8.812,-0.482,-0.008,0.181
13798,-0.806,4.213,8.846,-0.452,0.007,0.151
13808,-0.798,4.207,8.828,-0.421,0.053,0.151
13818,-0.792,4.200,8.857,-0.467,0.053,0.090
13828,-0.792,4.220,8.812,-0.467,0.068,0.151
13838,-0.804,4.219,8.814,-0.482,0.083,0.135
13848,-0.800,4.211,8.809,-0.421,0.083,0.181
13858,-0.816,4.219,8.827,-0.467,0.098,0.181
13868,-0.812,4.222,8.824,-0.436,0.037,0.166
13878,-0.819,4.229,8.816,-0.436,0.022,0.151
13888,-0.803,4.214,8.818,-0.436,-0.008,0.212
13898,-0.789,4.197,8.798,-0.436,0.007,0.151
13908,-0.780,4.208,8.808,-0.436,-0.008,0.105
13918,-0.795,4.216,8.790,-0.452,-0.039,0.151
13928,-0.794,4.225,8.792,-0.436,0.037,0.166
13938,-0.793,4.235,8.828,-0.467,0.007,0.181
13948,-0.778,4.217,8.771,-0.467,-0.024,0.196
13958,-0.799,4.217,8.812,-0.482,0.007,0.242
13968,-0.793,4.216,8.818,-0.467,0.007,0.151
13978,-0.784,4.229,8.829,-0.467,0.007,0.196
13988,-0.799,4.197,8.836,-0.467,0.022,0.181
13998,-0.804,4.216,8.816,-0.421,0.053,0.166
14008,-0.795,4.213,8.804,-0.452,0.098,0.196
14018,-0.797,4.205,8.812,-0.406,0.037,0.166
14048,-0.794,4.220,8.809,-0.421,0.022,0.151
14058,-0.794,4.215,8.809,-0.436,-0.024,0.105
14068,-0.792,4.225,8.793,-0.436,0.007,0.151
14078,-0.789,4.226,8.788,-0.452,-0.024,0.181
14088,-0.789,4.221,8.783,-0.452,0.037,0.196
14098,-0.801,4.216,8.803,-0.436,0.037,0.227
14108,-0.801,4.195,8.804,-0.436,0.037,0.181
14118,-0.794,4.205,8.786,-0.467,0.022,0.151
14128,-0.782,4.200,8.823,-0.482,0.007,0.151
14138,-0.786,4.213,8.803,-0.467,0.053,0.181
14148,-0.782,4.191,8.796,-0.452,0.083,0.120
14158,-0.795,4.197,8.800,-0.390,0.098,0.105
14168,-0.804,4.222,8.814,-0.543,0.022,0.166
14178,-0.788,4.195,8.796,-0.543,-0.008,0.196
14188,-0.792,4.197,8.800,-0.467,0.053,0.166
14198,-0.809,4.203,8.829,-0.482,0.144,0.105
14208,-0.795,4.208,8.768,-0.314,0.205,0.166
14218,-0.809,4.240,8.822,-0.482,-0.024,0.196
14228,-0.784,4.208,8.798,-0.558,-0.008,0.242
14238,-0.754,4.202,8.792,-0.497,-0.131,0.166
14248,-0.785,4.202,8.803,-0.452,0.022,0.181
14258,-0.803,4.202,8.812,-0.436,0.144,0.135
14268,-0.793,4.237,8.830,-0.421,0.068,0.135
14278,-0.795,4.229,8.836,-0.467,0.114,0.135
14288,-0.800,4.213,8.841,-0.497,-0.024,0.105
14298,-0.798,4.220,8.829,-0.421,-0.008,0.090
14308,-0.797,4.202,8.824,-0.390,0.098,0.074
14318,-0.797,4.228,8.797,-0.299,0.144,0.090
14328,-0.818,4.241,8.783,-0.375,0.129,0.044
14338,-0.816,4.215,8.821,-0.650,-0.039,0.120
14348,-0.794,4.227,8.806,-0.650,-0.115,0.242
14358,-0.780,4.220,8.827,-0.528,0.129,0.181
14368,-0.793,4.208,8.834,-0.390,0.251,0.105
14378,-0.793,4.228,8.804,-0.452,0.144,0.151
14388,-0.801,4.209,8.810,-0.543,-0.039,0.181
14398,-0.786,4.213,8.823,-0.406,-0.070,0.120
14408,-0.797,4.211,8.817,-0.360,0.083,0.044
14418,-0.807,4.220,8.821,-0.360,0.053,0.135
14428,-0.785,4.228,8.820,-0.436,0.037,0.212
14438,-0.782,4.207,8.809,-0.558,0.068,0.212
14448,-0.786,4.226,8.809,-0.543,0.159,0.151
14458,-0.827,4.239,8.829,-0.513,0.175,0.166
14468,-0.800,4.219,8.833,-0.452,0.083,0.166
14478,-0.803,4.203,8.780,-0.390,0.068,0.074
14488,-0.805,4.203,8.798,-0.452,0.037,0.044
14498,-0.799,4.214,8.796,-0.589,-0.115,0.166
14508,-0.794,4.195,8.809,-0.604,-0.039,0.212
14518,-0.789,4.202,8.793,-0.513,0.221,0.120
14528,-0.801,4.204,8.797,-0.436,0.312,0.090
14538,-0.794,4.243,8.804,-0.513,0.037,0.257
14548,-0.809,4.198,8.827,-0.482,-0.131,0.273
14558,-0.782,4.213,8.814,-0.329,-0.070,0.074
14568,-0.792,4.232,8.820,-0.253,0.007,0.044
14578,-0.809,4.215,8.844,-0.360,-0.008,0.120
14588,-0.795,4.232,8.805,-0.543,-0.054,0.212
14598,-0.785,4.215,8.798,-0.558,0.068,0.196
14608,-0.794,4.198,8.815,-0.497,0.221,0.090
14618,-0.817,4.207,8.800,-0.482,0.266,0.105
14628,-0.800,4.221,8.821,-0.513,0.098,0.181
14638,-0.795,4.227,8.804,-0.497,-0.008,0.181
14648,-0.786,4.231,8.812,-0.421,0.007,0.059
14658,-0.799,4.227,8.821,-0.390,0.068,0.120
14668,-0.806,4.223,8.820,-0.436,0.037,0.166
14678,-0.793,4.205,8.809,-0.406,0.053,0.212
14688,-0.799,4.213,8.799,-0.482,0.144,0.166
14698,-0.795,4.200,8.811,-0.497,-0.008,0.151
14708,-0.789,4.211,8.791,-0.513,-0.024,0.181
14718,-0.798,4.227,8.810,-0.436,-0.008,0.151
14728,-0.812,4.211,8.833,-0.375,0.068,0.074
14738,-0.803,4.220,8.840,-0.467,-0.039,0.151
14748,-0.778,4.222,8.796,-0.528,-0.100,0.227
14758,-0.767,4.213,8.812,-0.482,0.037,0.196
14768,-0.772,4.202,8.802,-0.406,0.159,0.151
14778,-0.795,4.222,8.827,-0.406,0.175,0.166
14788,-0.806,4.215,8.841,-0.497,0.007,0.227
14798,-0.794,4.192,8.827,-0.482,-0.024,0.212
14808,-0.774,4.197,8.809,-0.375,0.037,0.090
14818,-0.810,4.201,8.810,-0.421,0.053,0.151
14828,-0.798,4.219,8.796,-0.513,0.007,0.242
14838,-0.786,4.220,8.768,-0.589,0.022,0.227
14848,-0.793,4.223,8.829,-0.574,0.083,0.181
14858,-0.805,4.214,8.810,-0.543,0.129,0.166
14868,-0.795,4.234,8.822,-0.482,0.053,0.166
14878,-0.798,4.227,8.808,-0.406,0.037,0.120
14888,-0.795,4.210,8.833,-0.406,0.053,0.135
14898,-0.813,4.213,8.838,-0.436,-0.008,0.151
14908,-0.811,4.208,8.803,-0.482,-0.008,0.151
14918,-0.800,4.229,8.830,-0.406,0.098,0.151
14928,-0.806,4.216,8.808,-0.436,0.175,0.120
14938,-0.805,4.204,8.818,-0.513,0.083,0.151
14948,-0.797,4.213,8.805,-0.497,-0.008,0.196
14958,-0.797,4.223,8.826,-0.452,-0.008,0.212
14968,-0.799,4.225,8.835,-0.467,0.098,0.120
14978,-0.788,4.226,8.829,-0.452,0.007,0.120
14988,-0.763,4.211,8.824,-0.513,0.007,0.227
14998,-0.786,4.198,8.800,-0.543,0.007,0.196
15008,-0.797,4.202,8.791,-0.452,0.068,0.181
15018,-0.806,4.214,8.803,-0.436,0.129,0.135
15048,-0.784,4.195,8.796,-0.436,-0.024,0.166
15058,-0.789,4.195,8.821,-0.436,0.053,0.181
15068,-0.803,4.217,8.814,-0.390,0.083,0.135
15078,-0.806,4.232,8.810,-0.482,0.068,0.196
15088,-0.803,4.221,8.827,-0.497,0.129,0.166
15098,-0.784,4.231,8.818,-0.436,0.053,0.181
15108,-0.803,4.213,8.808,-0.436,-0.024,0.212
15118,-0.779,4.213,8.810,-0.436,-0.008,0.181
15128,-0.788,4.202,8.799,-0.360,0.037,0.135
15138,-0.819,4.238,8.823,-0.436,0.037,0.105
15148,-0.799,4.228,8.854,-0.497,0.007,0.166
15158,-0.779,4.238,8.835,-0.467,0.037,0.212
15168,-0.795,4.208,8.802,-0.467,0.144,0.120
15178,-0.794,4.216,8.793,-0.452,0.098,0.151
15188,-0.804,4.207,8.793,-0.497,0.022,0.120
15198,-0.781,4.210,8.803,-0.497,-0.008,0.166
15208,-0.794,4.209,8.808,-0.452,0.022,0.151
15218,-0.797,4.220,8.826,-0.360,-0.024,0.074
15228,-0.800,4.228,8.823,-0.406,-0.008,0.181
15238,-0.807,4.222,8.816,-0.421,0.022,0.151
15248,-0.795,4.207,8.803,-0.452,-0.008,0.196
15258,-0.798,4.226,8.828,-0.452,0.007,0.166
15268,-0.794,4.235,8.840,-0.467,0.007,0.151
15278,-0.794,4.226,8.791,-0.390,0.037,0.181
15288,-0.797,4.213,8.809,-0.436,0.068,0.135
15298,-0.801,4.214,8.824,-0.482,0.068,0.135
15308,-0.798,4.216,8.829,-0.497,0.053,0.166
15318,-0.801,4.213,8.811,-0.497,0.053,0.166
15328,-0.786,4.238,8.806,-0.467,0.068,0.105
15338,-0.793,4.244,8.803,-0.452,0.083,0.120
15348,-0.784,4.209,8.833,-0.513,0.037,0.166
15358,-0.764,4.226,8.822,-0.436,0.022,0.181
15368,-0.778,4.223,8.794,-0.421,0.053,0.135
15378,-0.793,4.228,8.838,-0.406,0.053,0.105
15388,-0.799,4.225,8.838,-0.452,0.022,0.212
15398,-0.795,4.207,8.820,-0.482,0.022,0.242
15408,-0.803,4.226,8.811,-0.482,0.114,0.196
15418,-0.792,4.225,8.817,-0.436,0.053,0.181
15428,-0.787,4.226,8.822,-0.421,-0.039,0.166
15438,-0.795,4.231,8.815,-0.421,-0.054,0.166
15448,-0.810,4.235,8.804,-0.375,-0.024,0.166
15457,-0.780,4.208,8.806,-0.406,0.007,0.166
15468,-0.788,4.223,8.810,-0.482,0.068,0.135
15478,-0.806,4.217,8.793,-0.528,0.144,0.166
15488,-0.794,4.210,8.800,-0.497,0.129,0.135
15498,-0.795,4.226,8.799,-0.497,0.068,0.120
15508,-0.779,4.210,8.817,-0.452,0.022,0.105
15518,-0.791,4.232,8.808,-0.497,0.068,0.105
15528,-0.798,4.238,8.797,-0.482,0.053,0.120
15538,-0.791,4.234,8.797,-0.452,0.022,0.151
15548,-0.787,4.217,8.805,-0.497,0.053,0.196
15558,-0.786,4.201,8.811,-0.452,0.098,0.212
15568,-0.803,4.213,8.817,-0.436,0.098,0.151
15578,-0.811,4.215,8.838,-0.467,0.129,0.135
15588,-0.788,4.219,8.816,-0.467,0.022,0.181
15598,-0.778,4.217,8.792,-0.467,-0.070,0.166
15608,-0.773,4.229,8.794,-0.452,0.037,0.090
15618,-0.788,4.208,8.802,-0.436,0.114,0.135
15628,-0.818,4.217,8.823,-0.421,0.053,0.151
15638,-0.815,4.213,8.824,-0.497,0.083,0.181
15648,-0.797,4.216,8.802,-0.513,0.083,0.166
15658,-0.804,4.222,8.829,-0.482,0.129,0.120
15668,-0.801,4.220,8.851,-0.452,0.053,0.151
15678,-0.788,4.209,8.830,-0.482,0.022,0.166
15688,-0.805,4.211,8.851,-0.421,0.022,0.135
15698,-0.801,4.214,8.824,-0.421,-0.008,0.135
15708,-0.804,4.210,8.828,-0.436,0.053,0.120
15718,-0.809,4.211,8.803,-0.467,0.053,0.166
15728,-0.803,4.225,8.817,-0.467,0.098,0.151
15738,-0.803,4.234,8.844,-0.436,0.037,0.151
15748,-0.800,4.210,8.806,-0.467,0.007,0.135
15758,-0.785,4.209,8.796,-0.452,0.022,0.135
15768,-0.806,4.235,8.810,-0.467,0.068,0.059
15778,-0.798,4.234,8.810,-0.452,0.083,0.151
15788,-0.795,4.216,8.808,-0.452,0.053,0.181
15798,-0.812,4.202,8.791,-0.467,0.007,0.166
15808,-0.791,4.209,8.816,-0.482,-0.008,0.135
15818,-0.779,4.223,8.809,-0.421,0.114,0.090
15828,-0.775,4.250,8.836,-0.436,0.098,0.166
15838,-0.785,4.231,8.816,-0.482,0.083,0.151
15848,-0.787,4.223,8.830,-0.467,0.037,0.181
15858,-0.810,4.222,8.860,-0.497,0.098,0.166
15868,-0.786,4.215,8.856,-0.497,0.114,0.181
15878,-0.793,4.210,8.820,-0.467,0.068,0.181
15888,-0.805,4.220,8.818,-0.452,0.083,0.166
15898,-0.799,4.208,8.805,-0.452,0.068,0.120
15908,-0.813,4.214,8.822,-0.467,0.007,0.135
15918,-0.795,4.220,8.798,-0.452,0.007,0.212
15928,-0.775,4.228,8.793,-0.482,0.007,0.166
15938,-0.795,4.226,8.794,-0.497,0.053,0.151
15948,-0.815,4.217,8.806,-0.467,0.114,0.135
15958,-0.816,4.204,8.778,-0.467,0.083,0.181
15968,-0.805,4.198,8.800,-0.482,0.083,0.120
15978,-0.782,4.202,8.814,-0.482,-0.008,0.166
15988,-0.787,4.214,8.815,-0.452,0.053,0.166
15998,-0.780,4.207,8.808,-0.528,0.007,0.105
16008,-0.792,4.205,8.814,-0.482,0.098,0.135
16018,-0.805,4.205,8.816,-0.421,0.144,0.105
16048,-0.794,4.216,8.804,-0.482,0.068,0.181
16058,-0.789,4.221,8.808,-0.482,0.114,0.181
16068,-0.795,4.239,8.821,-0.467,0.007,0.151
16078,-0.799,4.227,8.822,-0.452,-0.008,0.166
16088,-0.807,4.211,8.786,-0.436,0.022,0.166
16098,-0.797,4.234,8.798,-0.406,0.053,0.212
16108,-0.803,4.228,8.798,-0.452,0.053,0.196
16118,-0.794,4.238,8.812,-0.452,0.068,0.196
16128,-0.787,4.227,8.773,-0.436,0.068,0.181
16138,-0.809,4.221,8.815,-0.452,-0.008,0.166
16148,-0.803,4.223,8.809,-0.482,-0.024,0.151
16158,-0.791,4.225,8.800,-0.513,-0.024,0.135
16168,-0.787,4.222,8.806,-0.497,0.083,0.105
16178,-0.800,4.209,8.827,-0.436,0.098,0.120
16188,-0.810,4.205,8.840,-0.467,0.037,0.120
16198,-0.793,4.200,8.827,-0.497,0.007,0.135
16208,-0.787,4.225,8.816,-0.452,0.022,0.196
16218,-0.772,4.213,8.793,-0.390,0.053,0.166
16228,-0.818,4.198,8.838,-0.406,0.083,0.181
16238,-0.809,4.201,8.845,-0.390,0.022,0.151
16248,-0.801,4.227,8.839,-0.421,0.007,0.181
16258,-0.778,4.225,8.820,-0.421,0.007,0.181
16268,-0.789,4.229,8.802,-0.452,0.007,0.166
16278,-0.799,4.220,8.810,-0.390,0.068,0.212
16288,-0.789,4.234,8.838,-0.452,0.068,0.181
16298,-0.801,4.238,8.865,-0.528,0.068,0.135
16308,-0.785,4.211,8.823,-0.497,0.083,0.151
16318,-0.787,4.221,8.828,-0.497,0.068,0.151
16328,-0.797,4.234,8.812,-0.452,0.083,0.151
16338,-0.787,4.220,8.818,-0.452,0.037,0.135
16348,-0.788,4.214,8.821,-0.452,0.098,0.105
16358,-0.786,4.229,8.785,-0.528,0.053,0.135
16368,-0.787,4.203,8.808,-0.513,0.068,0.166
16378,-0.772,4.208,8.826,-0.436,0.068,0.135
16388,-0.791,4.234,8.805,-0.452,0.068,0.151
16398,-0.800,4.213,8.798,-0.452,0.022,0.166
16408,-0.795,4.214,8.847,-0.467,0.037,0.212
16418,-0.801,4.220,8.815,-0.436,0.053,0.227
16428,-0.778,4.215,8.814,-0.467,0.114,0.212
16438,-0.784,4.227,8.823,-0.482,0.053,0.212
16448,-0.775,4.217,8.835,-0.467,-0.008,0.166
16458,-0.803,4.225,8.805,-0.482,0.037,0.166
16468,-0.786,4.213,8.772,-0.436,0.053,0.151
16478,-0.781,4.222,8.816,-0.467,0.083,0.181
16488,-0.785,4.229,8.818,-0.528,0.114,0.166
16498,-0.799,4.215,8.816,-0.528,0.129,0.151
16508,-0.805,4.227,8.802,-0.467,0.114,0.166
16518,-0.798,4.208,8.815,-0.482,0.114,0.105
16528,-0.793,4.207,8.827,-0.436,0.098,0.105
16538,-0.792,4.208,8.832,-0.436,0.068,0.135
16548,-0.795,4.222,8.811,-0.436,0.129,0.212
16558,-0.799,4.229,8.824,-0.421,0.083,0.181
16568,-0.792,4.207,8.800,-0.421,0.037,0.196
16578,-0.794,4.217,8.799,-0.406,-0.008,0.166
16588,-0.789,4.220,8.808,-0.390,0.083,0.135
16598,-0.799,4.213,8.808,-0.436,0.022,0.166
16608,-0.792,4.227,8.771,-0.436,0.022,0.151
16618,-0.781,4.215,8.779,-0.421,0.037,0.135
16628,-0.772,4.211,8.817,-0.497,0.037,0.181
16638,-0.769,4.210,8.803,-0.513,0.083,0.166
16648,-0.772,4.213,8.805,-0.482,0.068,0.135
16658,-0.809,4.219,8.785,-0.436,0.114,0.090
16668,-0.789,4.225,8.815,-0.436,0.083,0.120
16678,-0.792,4.232,8.822,-0.467,0.114,0.151
16688,-0.785,4.228,8.791,-0.452,0.098,0.135
16698,-0.803,4.228,8.822,-0.406,0.037,0.166
16708,-0.801,4.211,8.823,-0.452,0.007,0.196
16718,-0.799,4.227,8.781,-0.421,0.053,0.181
16728,-0.789,4.223,8.814,-0.406,0.053,0.212
16738,-0.785,4.221,8.786,-0.421,0.037,0.151
16748,-0.795,4.219,8.800,-0.467,0.083,0.181
16758,-0.791,4.223,8.799,-0.482,0.053,0.166
16768,-0.795,4.201,8.800,-0.482,0.053,0.166
16778,-0.794,4.211,8.812,-0.421,0.037,0.196
16788,-0.776,4.220,8.823,-0.390,0.053,0.135
16798,-0.793,4.223,8.809,-0.406,0.068,0.151
16808,-0.801,4.227,8.778,-0.467,0.083,0.151
16818,-0.798,4.226,8.790,-0.467,0.083,0.135
16828,-0.782,4.216,8.812,-0.497,0.098,0.135
16838,-0.786,4.211,8.800,-0.497,0.068,0.151
16848,-0.797,4.226,8.820,-0.467,-0.024,0.166
16858,-0.794,4.221,8.800,-0.497,0.007,0.151
16868,-0.809,4.207,8.787,-0.528,0.022,0.212
16878,-0.811,4.223,8.826,-0.482,0.037,0.196
16888,-0.816,4.215,8.824,-0.467,0.037,0.181
16898,-0.813,4.213,8.848,-0.436,0.053,0.135
16908,-0.779,4.228,8.841,-0.421,0.068,0.151
16918,-0.786,4.223,8.809,-0.360,0.053,0.151
16928,-0.789,4.225,8.808,-0.390,0.037,0.135
16938,-0.788,4.231,8.838,-0.482,0.053,0.166
16948,-0.806,4.216,8.821,-0.467,0.037,0.166
16958,-0.798,4.229,8.798,-0.467,0.022,0.181
16968,-0.809,4.227,8.830,-0.467,0.068,0.166
16978,-0.786,4.211,8.820,-0.513,0.068,0.181
16988,-0.784,4.216,8.810,-0.467,0.037,0.166
16998,-0.787,4.225,8.816,-0.482,0.037,0.166
17008,-0.795,4.213,8.836,-0.497,0.037,0.135
17018,-0.822,4.219,8.830,-0.452,0.037,0.135
17048,-0.803,4.208,8.826,-0.406,0.068,0.166
17058,-0.805,4.228,8.808,-0.436,0.037,0.181
17068,-0.800,4.227,8.809,-0.497,0.037,0.166
17078,-0.803,4.228,8.794,-0.482,0.037,0.181
17088,-0.807,4.211,8.778,-0.452,0.053,0.196
17098,-0.797,4.205,8.805,-0.421,0.022,0.181
17108,-0.787,4.238,8.790,-0.436,-0.008,0.212
17118,-0.806,4.219,8.802,-0.452,0.022,0.181
17128,-0.803,4.192,8.826,-0.482,0.022,0.135
17138,-0.789,4.195,8.833,-0.467,0.068,0.151
17148,-0.778,4.211,8.812,-0.482,0.068,0.105
17158,-0.787,4.223,8.784,-0.482,0.007,0.074
17168,-0.804,4.205,8.791,-0.482,0.053,0.090
17178,-0.804,4.215,8.790,-0.482,0.053,0.135
17188,-0.817,4.216,8.786,-0.528,0.053,0.120
17198,-0.798,4.198,8.808,-0.543,0.114,0.135
17208,-0.821,4.189,8.802,-0.467,0.083,0.135
17218,-0.801,4.202,8.816,-0.421,0.114,0.196
17228,-0.795,4.217,8.794,-0.390,0.053,0.181
17238,-0.789,4.209,8.806,-0.390,0.037,0.181
17248,-0.787,4.216,8.802,-0.390,-0.008,0.135
17258,-0.804,4.228,8.787,-0.436,-0.008,0.166
17268,-0.806,4.225,8.805,-0.421,-0.008,0.212
17278,-0.782,4.217,8.803,-0.436,0.053,0.166
17288,-0.778,4.200,8.811,-0.452,0.007,0.181
17298,-0.811,4.204,8.784,-0.497,0.007,0.196
17308,-0.804,4.225,8.774,-0.497,-0.008,0.120
17318,-0.789,4.221,8.817,-0.482,0.068,0.120
17328,-0.803,4.235,8.802,-0.497,0.144,0.120
17338,-0.781,4.231,8.787,-0.513,0.114,0.120
17348,-0.797,4.204,8.812,-0.467,0.098,0.074
17358,-0.806,4.213,8.802,-0.436,0.053,0.105
17368,-0.797,4.221,8.787,-0.452,0.068,0.120
17378,-0.798,4.219,8.818,-0.467,0.037,0.166
17388,-0.811,4.219,8.790,-0.436,0.053,0.151
17398,-0.792,4.214,8.778,-0.467,0.022,0.135
17408,-0.785,4.220,8.811,-0.467,-0.008,0.196
17418,-0.795,4.232,8.803,-0.452,0.007,0.181
17428,-0.786,4.204,8.799,-0.452,0.007,0.151
17438,-0.787,4.229,8.804,-0.421,0.022,0.227
17448,-0.785,4.219,8.808,-0.467,0.037,0.151
17458,-0.782,4.211,8.802,-0.436,-0.039,0.105
17468,-0.779,4.194,8.802,-0.421,0.037,0.120
17478,-0.791,4.221,8.797,-0.436,0.083,0.105
17488,-0.804,4.220,8.821,-0.497,0.083,0.090
17498,-0.804,4.219,8.811,-0.482,0.083,0.120
17508,-0.795,4.204,8.836,-0.543,0.053,0.135
17518,-0.780,4.223,8.822,-0.497,0.037,0.166
17528,-0.792,4.216,8.866,-0.482,0.068,0.120
17538,-0.804,4.209,8.820,-0.452,0.037,0.135
17548,-0.774,4.232,8.818,-0.467,-0.054,0.151
17558,-0.764,4.223,8.826,-0.406,-0.024,0.166
17568,-0.799,4.228,8.812,-0.375,0.022,0.135
17578,-0.795,4.210,8.806,-0.421,-0.024,0.166
17588,-0.800,4.211,8.806,-0.452,-0.085,0.227
17598,-0.794,4.213,8.826,-0.421,0.037,0.166
17608,-0.781,4.219,8.826,-0.452,0.037,0.151
17618,-0.773,4.222,8.840,-0.452,0.068,0.181
17628,-0.785,4.225,8.820,-0.513,0.083,0.196
17638,-0.768,4.200,8.802,-0.543,0.068,0.166
17648,-0.780,4.220,8.822,-0.543,0.068,0.151
17658,-0.769,4.234,8.809,-0.513,0.007,0.090
17668,-0.801,4.245,8.778,-0.482,0.068,0.135
17678,-0.801,4.243,8.781,-0.390,0.083,0.120
17688,-0.809,4.237,8.818,-0.436,0.053,0.151
17698,-0.804,4.214,8.794,-0.390,0.007,0.166
17708,-0.798,4.220,8.790,-0.467,-0.024,0.166
17718,-0.804,4.216,8.805,-0.436,-0.024,0.196
17728,-0.791,4.220,8.812,-0.436,-0.008,0.196
17738,-0.797,4.219,8.828,-0.421,-0.008,0.166
17748,-0.804,4.219,8.838,-0.467,0.068,0.212
17758,-0.776,4.220,8.824,-0.452,0.083,0.242
17768,-0.786,4.210,8.808,-0.436,0.129,0.120
17778,-0.780,4.198,8.811,-0.497,0.098,0.151
17788,-0.797,4.210,8.805,-0.482,0.022,0.135
17798,-0.784,4.241,8.796,-0.482,0.083,0.135
17808,-0.794,4.238,8.781,-0.482,0.068,0.120
17818,-0.791,4.228,8.797,-0.482,0.159,0.105
17828,-0.807,4.221,8.821,-0.436,0.098,0.135
17838,-0.804,4.207,8.828,-0.452,0.129,0.151
17848,-0.811,4.217,8.808,-0.467,0.053,0.151
17858,-0.817,4.205,8.797,-0.436,0.022,0.227
17868,-0.793,4.210,8.820,-0.421,0.053,0.196
17878,-0.800,4.211,8.812,-0.436,0.022,0.181
17888,-0.799,4.215,8.840,-0.452,0.007,0.196
17898,-0.801,4.208,8.836,-0.436,-0.008,0.196
17908,-0.800,4.222,8.818,-0.421,0.037,0.135
17918,-0.776,4.214,8.817,-0.406,0.068,0.135
17928,-0.775,4.222,8.805,-0.482,0.037,0.135
17938,-0.784,4.223,8.818,-0.513,0.053,0.090
17948,-0.789,4.204,8.765,-0.497,0.022,0.151
17958,-0.787,4.216,8.785,-0.543,0.068,0.151
17968,-0.780,4.210,8.786,-0.497,0.098,0.105
17978,-0.800,4.221,8.821,-0.497,0.083,0.090
17988,-0.797,4.222,8.838,-0.497,0.114,0.074
17998,-0.809,4.221,8.818,-0.467,0.098,0.074
18008,-0.788,4.229,8.808,-0.452,0.007,0.135
18018,-0.776,4.215,8.815,-0.467,0.037,0.135
18048,-0.784,4.210,8.799,-0.436,0.053,0.196
18058,-0.795,4.202,8.812,-0.497,0.022,0.196
18068,-0.788,4.213,8.827,-0.482,0.037,0.196
18078,-0.775,4.217,8.818,-0.452,0.053,0.212
18088,-0.792,4.233,8.841,-0.436,0.083,0.120
18098,-0.805,4.207,8.830,-0.452,0.053,0.166
18108,-0.788,4.211,8.799,-0.467,0.068,0.196
18118,-0.784,4.197,8.840,-0.482,0.083,0.105
18128,-0.793,4.227,8.815,-0.436,0.037,0.090
18138,-0.788,4.225,8.811,-0.467,0.068,0.074
18148,-0.794,4.220,8.799,-0.421,0.053,0.090
18158,-0.801,4.209,8.822,-0.452,0.083,0.151
18168,-0.798,4.215,8.814,-0.452,0.083,0.181
18178,-0.793,4.220,8.812,-0.467,0.037,0.135
18188,-0.793,4.211,8.826,-0.482,0.037,0.151
18198,-0.784,4.234,8.826,-0.421,-0.024,0.135
18208,-0.786,4.223,8.808,-0.421,0.037,0.151
18218,-0.788,4.229,8.822,-0.360,0.053,0.227
18228,-0.786,4.231,8.815,-0.406,-0.039,0.181
18238,-0.792,4.205,8.833,-0.406,-0.008,0.151
18248,-0.791,4.210,8.783,-0.436,0.037,0.212
18258,-0.793,4.221,8.828,-0.467,0.068,0.166
18268,-0.785,4.204,8.830,-0.482,0.083,0.105
18278,-0.785,4.216,8.818,-0.528,0.129,0.135
18288,-0.797,4.219,8.827,-0.528,0.114,0.105
18298,-0.798,4.196,8.840,-0.558,0.053,0.135
18308,-0.804,4.192,8.816,-0.513,-0.008,0.135
18318,-0.800,4.214,8.821,-0.421,0.144,0.151
18328,-0.801,4.211,8.824,-0.452,0.098,0.166
18338,-0.804,4.220,8.802,-0.406,0.037,0.181
18348,-0.792,4.205,8.803,-0.406,0.022,0.166
18358,-0.791,4.216,8.804,-0.375,-0.024,0.120
18368,-0.797,4.226,8.808,-0.406,0.037,0.166
18378,-0.780,4.238,8.808,-0.406,0.053,0.166
18388,-0.781,4.229,8.796,-0.406,0.037,0.166
18398,-0.775,4.222,8.797,-0.436,0.083,0.135
18408,-0.789,4.225,8.780,-0.497,0.068,0.151
18418,-0.797,4.192,8.817,-0.467,0.114,0.181
18428,-0.800,4.204,8.796,-0.452,0.129,0.166
18438,-0.803,4.216,8.815,-0.497,0.098,0.105
18448,-0.795,4.228,8.806,-0.452,0.068,0.090
18458,-0.804,4.217,8.828,-0.467,0.022,0.166
18468,-0.816,4.221,8.806,-0.467,0.053,0.151
18478,-0.799,4.209,8.787,-0.467,0.022,0.120
18488,-0.782,4.211,8.791,-0.452,0.098,0.151
18498,-0.779,4.221,8.827,-0.436,0.068,0.151
18508,-0.781,4.204,8.842,-0.406,0.022,0.166
18518,-0.773,4.214,8.791,-0.482,-0.008,0.181
18528,-0.794,4.220,8.796,-0.436,0.037,0.151
18538,-0.787,4.217,8.808,-0.467,0.098,0.135
18548,-0.789,4.221,8.802,-0.467,0.098,0.196
18558,-0.805,4.215,8.778,-0.482,0.037,0.151
18568,-0.791,4.226,8.787,-0.467,0.053,0.166
18578,-0.789,4.216,8.820,-0.436,0.129,0.120
18588,-0.784,4.223,8.820,-0.467,0.053,0.105
18598,-0.793,4.219,8.804,-0.513,0.037,0.074
18608,-0.786,4.214,8.809,-0.513,0.083,0.135
18618,-0.797,4.231,8.809,-0.513,0.083,0.135
18628,-0.806,4.225,8.816,-0.497,0.098,0.105
18638,-0.792,4.223,8.791,-0.482,0.114,0.166
18648,-0.785,4.213,8.792,-0.482,0.114,0.181
18658,-0.793,4.213,8.812,-0.436,0.068,0.151
18668,-0.811,4.221,8.818,-0.436,0.007,0.151
18678,-0.810,4.227,8.804,-0.452,0.053,0.120
18688,-0.789,4.227,8.840,-0.421,0.098,0.181
18698,-0.782,4.211,8.822,-0.436,0.053,0.135
18708,-0.789,4.213,8.823,-0.421,0.083,0.181
18718,-0.794,4.221,8.815,-0.452,0.068,0.151
18728,-0.785,4.219,8.815,-0.513,0.037,0.135
18738,-0.788,4.203,8.784,-0.497,0.037,0.105
18748,-0.805,4.216,8.800,-0.513,0.007,0.166
18758,-0.797,4.225,8.812,-0.482,0.053,0.135
18768,-0.774,4.214,8.812,-0.482,0.083,0.135
18778,-0.795,4.211,8.804,-0.513,0.098,0.166
18788,-0.786,4.210,8.820,-0.482,0.083,0.135
18798,-0.801,4.225,8.803,-0.482,0.083,0.151
18808,-0.807,4.221,8.808,-0.513,0.129,0.151
18818,-0.804,4.220,8.786,-0.497,0.053,0.151
18828,-0.799,4.217,8.796,-0.482,-0.008,0.212
18838,-0.794,4.213,8.798,-0.482,0.053,0.196
18848,-0.773,4.229,8.799,-0.452,0.053,0.166
18858,-0.785,4.231,8.821,-0.452,0.083,0.151
18868,-0.807,4.223,8.815,-0.452,0.037,0.181
18878,-0.793,4.211,8.793,-0.421,0.068,0.166
18888,-0.795,4.222,8.824,-0.452,0.037,0.151
18898,-0.806,4.229,8.810,-0.467,0.037,0.105
18908,-0.798,4.225,8.796,-0.482,0.053,0.090
18918,-0.786,4.226,8.844,-0.452,0.114,0.090
18928,-0.798,4.221,8.823,-0.452,0.083,0.135
18938,-0.787,4.214,8.838,-0.436,0.083,0.151
18948,-0.799,4.200,8.818,-0.436,0.083,0.105
18958,-0.787,4.225,8.788,-0.406,0.022,0.135
18968,-0.786,4.221,8.781,-0.436,0.114,0.212
18978,-0.793,4.217,8.804,-0.482,0.068,0.212
18988,-0.787,4.232,8.832,-0.467,0.022,0.212
18998,-0.787,4.219,8.817,-0.467,0.037,0.181
19008,-0.788,4.216,8.814,-0.452,0.007,0.181
19018,-0.785,4.222,8.827,-0.406,-0.039,0.120
19048,-0.799,4.225,8.760,-0.421,0.053,0.120
19058,-0.793,4.225,8.818,-0.452,0.068,0.196
19068,-0.804,4.219,8.836,-0.497,0.037,0.135
19078,-0.793,4.217,8.839,-0.513,0.053,0.181
19088,-0.781,4.214,8.830,-0.482,0.083,0.135
19098,-0.786,4.222,8.841,-0.497,0.022,0.105
19108,-0.789,4.223,8.836,-0.421,0.007,0.105
19118,-0.792,4.217,8.856,-0.406,0.037,0.135
19128,-0.797,4.220,8.830,-0.421,0.068,0.105
19138,-0.830,4.221,8.820,-0.436,0.053,0.120
19148,-0.800,4.217,8.799,-0.436,0.037,0.166
19158,-0.807,4.220,8.810,-0.452,0.022,0.181
19168,-0.800,4.202,8.818,-0.436,0.022,0.196
19178,-0.801,4.229,8.814,-0.421,-0.008,0.212
19188,-0.815,4.220,8.809,-0.452,0.037,0.181
19198,-0.804,4.239,8.780,-0.482,0.068,0.181
19208,-0.804,4.239,8.821,-0.513,0.083,0.196
19218,-0.804,4.225,8.811,-0.467,0.053,0.151
19228,-0.800,4.226,8.826,-0.452,0.037,0.135
19238,-0.823,4.220,8.804,-0.467,0.098,0.105
19248,-0.811,4.204,8.817,-0.452,0.068,0.135
19258,-0.794,4.216,8.824,-0.452,0.037,0.151
19268,-0.799,4.225,8.832,-0.467,0.022,0.135
19278,-0.791,4.214,8.812,-0.482,0.037,0.120
19288,-0.810,4.241,8.817,-0.482,0.037,0.166
19298,-0.798,4.228,8.826,-0.452,0.037,0.196
19308,-0.780,4.226,8.834,-0.452,0.022,0.166
19318,-0.791,4.233,8.842,-0.436,0.083,0.166
19328,-0.791,4.220,8.840,-0.452,0.037,0.181
19338,-0.768,4.226,8.827,-0.421,0.022,0.166
19348,-0.807,4.217,8.806,-0.452,0.068,0.151
19358,-0.789,4.208,8.802,-0.513,0.053,0.135
19368,-0.787,4.226,8.806,-0.467,0.068,0.166
19378,-0.799,4.202,8.829,-0.467,0.098,0.105
19388,-0.809,4.214,8.817,-0.467,0.068,0.120
19398,-0.807,4.220,8.790,-0.406,0.022,0.120
19408,-0.779,4.216,8.823,-0.452,0.007,0.120
19418,-0.797,4.232,8.826,-0.467,0.083,0.135
19428,-0.788,4.231,8.840,-0.467,0.068,0.105
19438,-0.784,4.244,8.829,-0.436,0.068,0.181
19448,-0.784,4.201,8.832,-0.467,-0.008,0.196
19458,-0.793,4.208,8.815,-0.467,0.053,0.120
19468,-0.791,4.217,8.802,-0.436,0.022,0.135
19478,-0.787,4.232,8.816,-0.390,0.068,0.166
19488,-0.776,4.220,8.797,-0.436,0.053,0.105
19498,-0.794,4.222,8.830,-0.406,0.068,0.105
19508,-0.791,4.221,8.823,-0.482,0.068,0.105
19518,-0.784,4.213,8.816,-0.482,0.037,0.135
19528,-0.776,4.214,8.826,-0.467,0.037,0.135
19538,-0.786,4.205,8.816,-0.528,0.068,0.135
19548,-0.782,4.227,8.810,-0.528,0.083,0.105
19558,-0.795,4.203,8.805,-0.528,0.022,0.151
19568,-0.805,4.208,8.794,-0.482,0.068,0.135
19578,-0.801,4.214,8.800,-0.452,0.053,0.151
19588,-0.805,4.219,8.835,-0.436,0.053,0.151
19598,-0.792,4.227,8.787,-0.436,0.098,0.151
19608,-0.792,4.234,8.824,-0.390,0.037,0.166
19618,-0.798,4.231,8.788,-0.436,0.037,0.181
19628,-0.787,4.223,8.784,-0.452,0.053,0.135
19638,-0.784,4.223,8.809,-0.436,0.037,0.151
19648,-0.792,4.213,8.817,-0.467,0.037,0.151
19658,-0.799,4.228,8.809,-0.482,0.022,0.135
19668,-0.792,4.225,8.811,-0.452,0.022,0.181
19678,-0.791,4.215,8.814,-0.467,0.068,0.135
19688,-0.797,4.214,8.793,-0.436,0.114,0.166
19698,-0.816,4.226,8.815,-0.436,0.098,0.151
19708,-0.785,4.215,8.809,-0.497,0.037,0.135
19718,-0.787,4.213,8.814,-0.482,0.083,0.181
19728,-0.787,4.215,8.814,-0.497,0.068,0.135
19738,-0.782,4.226,8.806,-0.436,0.007,0.105
19748,-0.813,4.220,8.810,-0.452,0.053,0.151
19758,-0.798,4.243,8.845,-0.467,0.022,0.181
19768,-0.787,4.235,8.833,-0.452,0.053,0.166
19778,-0.785,4.227,8.792,-0.436,0.037,0.166
19788,-0.792,4.225,8.803,-0.452,0.068,0.166
19798,-0.786,4.226,8.827,-0.482,0.083,0.181
19808,-0.798,4.210,8.797,-0.452,0.083,0.135
19818,-0.803,4.223,8.799,-0.467,0.083,0.120
19828,-0.805,4.215,8.808,-0.497,0.114,0.135
19838,-0.780,4.203,8.820,-0.452,0.129,0.135
19848,-0.789,4.200,8.818,-0.452,0.053,0.135
19858,-0.795,4.210,8.812,-0.452,0.098,0.151
19868,-0.781,4.198,8.812,-0.467,0.098,0.135
19878,-0.795,4.198,8.802,-0.513,0.068,0.166
19888,-0.793,4.202,8.802,-0.467,0.037,0.212
19898,-0.787,4.209,8.779,-0.467,0.037,0.181
19908,-0.799,4.209,8.786,-0.406,0.037,0.135
19918,-0.799,4.215,8.806,-0.467,0.037,0.181
19928,-0.805,4.202,8.811,-0.421,0.022,0.227
19938,-0.806,4.219,8.811,-0.421,0.022,0.196
19948,-0.816,4.234,8.808,-0.406,0.022,0.151
19958,-0.794,4.233,8.822,-0.436,0.068,0.166
19968,-0.789,4.223,8.812,-0.452,0.083,0.120
19978,-0.794,4.232,8.818,-0.482,0.129,0.120
19988,-0.806,4.208,8.835,-0.482,0.083,0.120
19998,-0.804,4.214,8.805,-0.436,0.037,0.120
20008,-0.792,4.226,8.798,-0.467,0.053,0.074
20018,-0.803,4.219,8.826,-0.467,0.098,0.120
20048,-0.805,4.221,8.814,-0.467,0.114,0.135
20058,-0.794,4.222,8.835,-0.452,0.037,0.151
20068,-0.803,4.225,8.820,-0.497,0.053,0.135
20078,-0.799,4.222,8.839,-0.436,0.022,0.120
20088,-0.780,4.222,8.817,-0.421,0.022,0.151
20098,-0.794,4.204,8.832,-0.482,0.022,0.151
20108,-0.812,4.211,8.803,-0.467,0.083,0.166
20118,-0.779,4.203,8.798,-0.482,0.053,0.166
20128,-0.792,4.215,8.800,-0.436,-0.008,0.135
20138,-0.804,4.228,8.778,-0.436,0.007,0.120
20148,-0.794,4.226,8.798,-0.452,0.083,0.135
20158,-0.807,4.215,8.803,-0.482,0.114,0.135
20168,-0.822,4.216,8.798,-0.528,0.053,0.196
20178,-0.809,4.213,8.798,-0.528,0.037,0.181
20188,-0.799,4.214,8.803,-0.482,0.022,0.135
20198,-0.794,4.227,8.800,-0.482,0.098,0.151
20208,-0.788,4.202,8.844,-0.497,0.053,0.135
20218,-0.807,4.214,8.830,-0.482,0.083,0.135
20228,-0.787,4.208,8.830,-0.452,0.083,0.120
20238,-0.792,4.225,8.810,-0.436,0.098,0.151
20248,-0.782,4.216,8.829,-0.436,0.053,0.196
20257,-0.772,4.211,8.848,-0.421,0.037,0.166
20268,-0.784,4.214,8.805,-0.452,0.068,0.151
20278,-0.792,4.228,8.792,-0.452,0.037,0.181
20288,-0.810,4.223,8.800,-0.497,0.037,0.151
20298,-0.800,4.225,8.781,-0.482,0.022,0.166
20308,-0.778,4.200,8.818,-0.467,0.083,0.166
20318,-0.780,4.204,8.816,-0.513,0.083,0.181
20328,-0.793,4.213,8.798,-0.513,0.083,0.105
20338,-0.801,4.205,8.826,-0.467,0.098,0.120
20348,-0.821,4.200,8.817,-0.467,0.098,0.105
20358,-0.818,4.202,8.809,-0.421,0.083,0.120
20368,-0.792,4.216,8.811,-0.421,0.037,0.120
20378,-0.806,4.217,8.818,-0.436,0.053,0.196
20388,-0.803,4.202,8.792,-0.452,0.037,0.135
20398,-0.801,4.205,8.808,-0.467,0.083,0.181
20408,-0.793,4.228,8.823,-0.452,0.007,0.135
20418,-0.793,4.222,8.834,-0.436,0.037,0.135
20428,-0.791,4.219,8.802,-0.390,0.068,0.196
20438,-0.795,4.222,8.810,-0.452,0.037,0.135
20448,-0.788,4.234,8.797,-0.452,0.037,0.151
20458,-0.780,4.223,8.799,-0.467,0.129,0.120
20468,-0.791,4.210,8.785,-0.467,0.068,0.105
20478,-0.795,4.220,8.829,-0.452,0.053,0.105
20488,-0.799,4.222,8.815,-0.482,0.068,0.135
20498,-0.785,4.222,8.850,-0.421,0.129,0.135
20508,-0.787,4.209,8.817,-0.390,0.068,0.105
20518,-0.816,4.213,8.858,-0.452,0.053,0.196
20528,-0.803,4.219,8.836,-0.497,0.098,0.212
20538,-0.803,4.214,8.805,-0.452,0.022,0.196
20548,-0.823,4.213,8.811,-0.452,0.053,0.196
20558,-0.806,4.225,8.823,-0.406,-0.008,0.135
20568,-0.791,4.216,8.809,-0.421,-0.008,0.181
20578,-0.805,4.219,8.811,-0.390,0.037,0.135
20588,-0.785,4.226,8.822,-0.467,0.037,0.181
20598,-0.780,4.222,8.818,-0.436,0.068,0.181
20608,-0.791,4.225,8.818,-0.467,0.083,0.090
20618,-0.803,4.221,8.791,-0.467,0.068,0.105
20628,-0.786,4.222,8.814,-0.467,0.114,0.120
20638,-0.791,4.233,8.804,-0.467,0.022,0.090
20648,-0.784,4.220,8.857,-0.513,0.068,0.151
20658,-0.779,4.222,8.834,-0.467,0.083,0.120
20668,-0.782,4.239,8.835,-0.482,0.144,0.135
20678,-0.785,4.209,8.839,-0.467,0.068,0.135
20688,-0.803,4.221,8.802,-0.467,0.037,0.166
20698,-0.800,4.210,8.802,-0.452,0.007,0.166
20708,-0.813,4.223,8.832,-0.467,0.068,0.151
20718,-0.786,4.235,8.816,-0.421,0.053,0.166
20728,-0.781,4.231,8.808,-0.452,0.037,0.120
20738,-0.798,4.211,8.794,-0.421,-0.008,0.196
20748,-0.804,4.211,8.815,-0.452,0.037,0.212
20758,-0.792,4.228,8.820,-0.436,0.022,0.196
20768,-0.784,4.207,8.836,-0.482,0.022,0.166
20778,-0.797,4.214,8.787,-0.513,0.068,0.135
20788,-0.782,4.219,8.838,-0.513,0.098,0.120
20798,-0.775,4.225,8.811,-0.482,0.098,0.090
20808,-0.803,4.219,8.810,-0.482,0.053,0.074
20818,-0.811,4.210,8.823,-0.497,0.053,0.135
20828,-0.810,4.227,8.802,-0.482,0.068,0.074
20838,-0.811,4.228,8.800,-0.497,0.083,0.105
20848,-0.784,4.227,8.818,-0.482,0.037,0.105
20858,-0.803,4.215,8.835,-0.467,0.022,0.105
20868,-0.797,4.232,8.824,-0.467,0.037,0.151
20878,-0.801,4.228,8.834,-0.452,0.037,0.151
20888,-0.801,4.213,8.808,-0.421,0.022,0.196
20898,-0.791,4.221,8.826,-0.436,0.007,0.196
20908,-0.784,4.214,8.808,-0.452,0.053,0.181
20918,-0.792,4.216,8.805,-0.452,0.068,0.151
20928,-0.794,4.225,8.812,-0.452,0.053,0.166
20938,-0.798,4.231,8.809,-0.436,0.037,0.196
20948,-0.804,4.214,8.811,-0.436,0.068,0.166
20958,-0.797,4.229,8.814,-0.482,0.144,0.090
20968,-0.784,4.220,8.800,-0.482,0.068,0.090
20978,-0.786,4.220,8.812,-0.497,0.022,0.090
20988,-0.782,4.216,8.826,-0.467,0.007,0.074
20998,-0.793,4.214,8.824,-0.482,0.037,0.120
21008,-0.793,4.211,8.845,-0.482,0.053,0.181
21018,-0.785,4.207,8.784,-0.467,0.053,0.166
21048,-0.791,4.215,8.818,-0.421,-0.008,0.151
21058,-0.795,4.217,8.810,-0.406,0.037,0.135
21068,-0.788,4.205,8.791,-0.436,0.098,0.181
21078,-0.792,4.215,8.821,-0.452,0.068,0.181
21088,-0.803,4.213,8.811,-0.497,0.022,0.196
21098,-0.789,4.223,8.842,-0.513,0.007,0.135
21108,-0.791,4.211,8.808,-0.452,0.083,0.151
21118,-0.784,4.205,8.827,-0.497,0.098,0.135
21128,-0.779,4.204,8.815,-0.467,0.083,0.120
21138,-0.780,4.214,8.839,-0.497,0.083,0.105
21148,-0.798,4.225,8.854,-0.497,0.098,0.105
21158,-0.798,4.227,8.840,-0.482,0.129,0.151
21168,-0.813,4.228,8.835,-0.452,0.037,0.135
21178,-0.794,4.223,8.811,-0.436,0.022,0.166
21188,-0.794,4.205,8.802,-0.390,-0.039,0.196
21198,-0.787,4.211,8.791,-0.390,0.007,0.181
21208,-0.809,4.221,8.806,-0.390,0.007,0.196
21218,-0.818,4.227,8.816,-0.436,0.022,0.212
21228,-0.798,4.226,8.835,-0.390,0.037,0.151
21238,-0.807,4.213,8.826,-0.421,0.083,0.181
21248,-0.797,4.221,8.820,-0.436,0.114,0.242
21258,-0.793,4.228,8.792,-0.436,0.068,0.181
21268,-0.791,4.237,8.797,-0.513,0.083,0.181
21278,-0.773,4.210,8.833,-0.452,0.053,0.151
21288,-0.772,4.222,8.814,-0.497,0.083,0.166
21298,-0.780,4.217,8.805,-0.513,0.053,0.151
21308,-0.776,4.227,8.799,-0.497,0.083,0.135
21318,-0.785,4.233,8.797,-0.482,0.022,0.074
21328,-0.794,4.232,8.796,-0.436,0.053,0.151
21338,-0.800,4.234,8.817,-0.452,0.053,0.151
21348,-0.801,4.234,8.793,-0.436,-0.054,0.151
21358,-0.780,4.240,8.824,-0.436,0.022,0.196
21368,-0.793,4.217,8.818,-0.436,0.022,0.212
21378,-0.801,4.227,8.832,-0.497,0.037,0.212
21388,-0.800,4.215,8.814,-0.452,0.037,0.151
21398,-0.803,4.223,8.824,-0.467,0.022,0.166
21408,-0.799,4.209,8.824,-0.482,0.053,0.212
21418,-0.801,4.211,8.824,-0.513,0.068,0.090
21428,-0.794,4.227,8.806,-0.467,0.068,0.135
21438,-0.795,4.223,8.824,-0.452,0.098,0.196
21448,-0.798,4.219,8.806,-0.513,0.098,0.105
21458,-0.803,4.203,8.817,-0.513,0.114,0.166
21468,-0.801,4.207,8.834,-0.482,0.098,0.120
21478,-0.784,4.196,8.822,-0.452,0.114,0.105
21488,-0.798,4.211,8.797,-0.452,0.037,0.166
21498,-0.791,4.222,8.809,-0.497,0.037,0.166
21508,-0.804,4.233,8.812,-0.482,0.022,0.105
21518,-0.811,4.213,8.790,-0.390,0.022,0.135
21528,-0.809,4.196,8.775,-0.390,0.037,0.105
21538,-0.784,4.213,8.806,-0.436,-0.024,0.151
21548,-0.804,4.211,8.812,-0.390,0.037,0.166
21558,-0.797,4.240,8.821,-0.421,0.053,0.166
21568,-0.786,4.215,8.817,-0.421,-0.008,0.135
21578,-0.791,4.214,8.820,-0.452,0.037,0.120
21588,-0.787,4.216,8.811,-0.497,0.068,0.181
21598,-0.779,4.225,8.810,-0.528,0.037,0.166
21608,-0.786,4.232,8.805,-0.482,0.083,0.181
21618,-0.801,4.227,8.800,-0.482,0.083,0.196
21628,-0.791,4.233,8.790,-0.482,0.144,0.090
21638,-0.801,4.217,8.835,-0.497,0.068,0.090
21648,-0.797,4.209,8.828,-0.467,0.053,0.105
21658,-0.806,4.191,8.834,-0.452,0.068,0.166
21668,-0.798,4.196,8.833,-0.421,0.037,0.151
21678,-0.804,4.239,8.823,-0.436,0.053,0.151
21688,-0.775,4.213,8.840,-0.436,-0.024,0.212
21698,-0.792,4.210,8.818,-0.452,-0.024,0.242
21708,-0.793,4.220,8.805,-0.406,-0.008,0.166
21718,-0.780,4.221,8.803,-0.452,-0.008,0.196
21728,-0.800,4.223,8.785,-0.467,-0.008,0.135
21738,-0.810,4.214,8.802,-0.467,0.068,0.166
21748,-0.795,4.208,8.810,-0.497,0.053,0.120
21758,-0.787,4.203,8.800,-0.421,0.098,0.090
21768,-0.776,4.202,8.812,-0.467,0.083,0.120
21778,-0.773,4.223,8.820,-0.482,0.114,0.090
21788,-0.793,4.214,8.809,-0.513,0.114,0.135
21798,-0.786,4.214,8.816,-0.482,0.098,0.120
21808,-0.795,4.202,8.808,-0.513,0.098,0.166
21818,-0.785,4.223,8.811,-0.467,0.053,0.135
21828,-0.797,4.226,8.818,-0.482,0.022,0.166
21838,-0.797,4.222,8.828,-0.467,0.022,0.181
21848,-0.792,4.228,8.821,-0.436,0.007,0.181
21858,-0.769,4.223,8.814,-0.421,0.022,0.181
21868,-0.791,4.208,8.803,-0.421,0.037,0.166
21878,-0.789,4.217,8.830,-0.390,-0.024,0.151
21888,-0.797,4.216,8.839,-0.452,-0.054,0.196
21898,-0.792,4.211,8.816,-0.467,-0.008,0.135
21908,-0.797,4.202,8.817,-0.467,0.037,0.090
21918,-0.807,4.229,8.850,-0.452,0.037,0.166
21928,-0.795,4.200,8.846,-0.482,0.053,0.074
21938,-0.797,4.201,8.806,-0.482,0.037,0.090
21948,-0.788,4.200,8.802,-0.497,0.083,0.090
21958,-0.781,4.211,8.820,-0.436,0.098,0.074
21968,-0.791,4.227,8.822,-0.467,0.114,0.105
21978,-0.791,4.216,8.828,-0.452,0.068,0.135
21988,-0.793,4.219,8.834,-0.436,0.022,0.181
21998,-0.795,4.219,8.827,-0.390,0.083,0.135
22008,-0.807,4.228,8.817,-0.421,0.037,0.196
22018,-0.788,4.220,8.800,-0.375,-0.008,0.181
22048,-0.786,4.221,8.816,-0.452,0.053,0.181
22058,-0.801,4.196,8.839,-0.452,0.037,0.181
22068,-0.803,4.191,8.800,-0.452,0.053,0.120
22078,-0.804,4.210,8.783,-0.467,0.098,0.105
22088,-0.797,4.222,8.809,-0.452,0.098,0.090
22098,-0.797,4.201,8.803,-0.513,0.068,0.074
22108,-0.797,4.222,8.794,-0.467,0.129,0.059
22118,-0.782,4.215,8.791,-0.513,0.114,0.074
22128,-0.785,4.238,8.806,-0.497,0.068,0.090
22138,-0.781,4.239,8.821,-0.467,0.068,0.120
22148,-0.782,4.227,8.803,-0.467,0.037,0.151
22158,-0.776,4.233,8.817,-0.436,0.053,0.196
22168,-0.785,4.221,8.815,-0.436,0.053,0.227
22178,-0.791,4.232,8.817,-0.436,0.037,0.196
22188,-0.793,4.219,8.839,-0.452,-0.008,0.257
22198,-0.800,4.219,8.812,-0.436,-0.008,0.196
22208,-0.779,4.233,8.817,-0.467,-0.024,0.166
22218,-0.784,4.229,8.835,-0.436,0.022,0.151
22228,-0.788,4.229,8.793,-0.467,0.037,0.151
22238,-0.789,4.222,8.786,-0.482,0.098,0.135
22248,-0.786,4.205,8.794,-0.482,0.175,0.090
22258,-0.797,4.208,8.802,-0.482,0.098,0.120
22268,-0.799,4.207,8.793,-0.528,0.114,0.151
22278,-0.804,4.209,8.826,-0.497,0.129,0.135
22288,-0.809,4.227,8.803,-0.497,0.098,0.151
22298,-0.795,4.237,8.823,-0.482,0.037,0.166
22308,-0.774,4.237,8.792,-0.467,0.022,0.135
22318,-0.800,4.239,8.804,-0.406,0.022,0.181
22328,-0.815,4.221,8.804,-0.406,0.037,0.166
22338,-0.792,4.232,8.815,-0.467,-0.008,0.166
22348,-0.782,4.214,8.821,-0.436,-0.039,0.166
22358,-0.803,4.213,8.800,-0.452,-0.024,0.166
22368,-0.797,4.229,8.814,-0.452,-0.008,0.135
22378,-0.810,4.222,8.803,-0.482,0.037,0.135
22388,-0.788,4.222,8.822,-0.513,0.083,0.151
22398,-0.780,4.216,8.792,-0.513,0.022,0.120
22408,-0.794,4.209,8.788,-0.513,0.053,0.105
22418,-0.797,4.204,8.806,-0.467,0.083,0.044
22428,-0.800,4.222,8.788,-0.452,0.022,0.090
22438,-0.798,4.214,8.780,-0.436,0.053,0.135
22448,-0.798,4.207,8.794,-0.436,-0.008,0.105
22458,-0.805,4.216,8.829,-0.452,0.053,0.151
22468,-0.805,4.232,8.811,-0.452,0.068,0.151
22478,-0.811,4.228,8.777,-0.436,0.053,0.181
22488,-0.781,4.227,8.785,-0.436,0.053,0.212
22498,-0.795,4.215,8.793,-0.390,0.037,0.135
22508,-0.795,4.233,8.824,-0.452,0.007,0.090
22518,-0.789,4.223,8.803,-0.406,0.022,0.120
22528,-0.792,4.225,8.811,-0.467,0.098,0.151
22538,-0.803,4.223,8.792,-0.452,0.083,0.135
22548,-0.798,4.223,8.793,-0.497,0.037,0.090
22558,-0.809,4.219,8.785,-0.467,0.068,0.135
22568,-0.809,4.220,8.814,-0.513,0.053,0.120
22578,-0.801,4.219,8.815,-0.574,0.037,0.090
22588,-0.791,4.216,8.806,-0.513,0.068,0.105
22598,-0.786,4.211,8.803,-0.452,0.037,0.120
22608,-0.805,4.217,8.817,-0.436,0.037,0.120
22618,-0.784,4.209,8.818,-0.421,0.037,0.151
22628,-0.787,4.210,8.826,-0.421,0.022,0.196
22638,-0.782,4.219,8.812,-0.360,0.022,0.181
22648,-0.787,4.211,8.824,-0.390,0.037,0.120
22658,-0.788,4.219,8.802,-0.390,-0.008,0.151
22668,-0.803,4.227,8.805,-0.452,-0.008,0.135
22678,-0.794,4.220,8.775,-0.436,0.022,0.151
22688,-0.807,4.226,8.810,-0.436,0.114,0.120
22698,-0.784,4.215,8.839,-0.513,0.083,0.181
22708,-0.789,4.225,8.838,-0.543,0.068,0.196
22718,-0.795,4.240,8.821,-0.513,0.053,0.181
22728,-0.784,4.232,8.790,-0.467,0.053,0.181
22738,-0.798,4.214,8.785,-0.482,0.068,0.166
22748,-0.803,4.231,8.803,-0.467,0.068,0.090
22758,-0.798,4.217,8.822,-0.452,0.053,0.044
22768,-0.806,4.228,8.833,-0.467,0.037,0.120
22778,-0.805,4.202,8.821,-0.467,0.022,0.105
22788,-0.803,4.216,8.805,-0.436,0.037,0.181
22798,-0.811,4.232,8.788,-0.497,0.068,0.227
22808,-0.791,4.239,8.823,-0.467,0.068,0.181
22818,-0.798,4.228,8.809,-0.482,0.068,0.166
22828,-0.789,4.232,8.829,-0.482,0.037,0.090
22838,-0.815,4.215,8.810,-0.452,0.053,0.120
22848,-0.788,4.200,8.816,-0.467,0.037,0.105
22858,-0.778,4.208,8.824,-0.452,0.053,0.105
22868,-0.775,4.207,8.830,-0.482,0.129,0.120
22878,-0.782,4.211,8.804,-0.467,0.083,0.135
22888,-0.779,4.223,8.820,-0.421,0.068,0.166
22898,-0.800,4.192,8.811,-0.482,0.053,0.105
22908,-0.791,4.210,8.815,-0.482,0.053,0.135
22918,-0.791,4.216,8.798,-0.482,0.068,0.151
22928,-0.803,4.220,8.816,-0.482,0.068,0.105
22938,-0.793,4.222,8.808,-0.467,0.083,0.151
22948,-0.780,4.213,8.796,-0.452,0.114,0.181
22958,-0.805,4.211,8.787,-0.467,0.068,0.166
22968,-0.805,4.219,8.786,-0.436,0.098,0.135
22978,-0.805,4.208,8.809,-0.452,0.053,0.166
22988,-0.787,4.227,8.810,-0.390,0.007,0.151
22998,-0.805,4.226,8.824,-0.406,-0.024,0.120
23008,-0.797,4.231,8.823,-0.421,-0.039,0.120
23018,-0.786,4.202,8.792,-0.452,0.068,0.120
23048,-0.794,4.213,8.803,-0.452,0.114,0.135
23058,-0.787,4.232,8.816,-0.482,0.053,0.120
23068,-0.806,4.232,8.786,-0.467,0.114,0.196
23078,-0.797,4.213,8.810,-0.406,0.083,0.196
23088,-0.809,4.226,8.793,-0.436,0.068,0.135
23098,-0.806,4.217,8.815,-0.467,0.007,0.151
23108,-0.804,4.228,8.818,-0.452,0.053,0.227
23118,-0.810,4.217,8.835,-0.421,0.022,0.181
23128,-0.797,4.220,8.818,-0.452,0.022,0.151
23138,-0.801,4.210,8.839,-0.452,0.022,0.135
23148,-0.803,4.211,8.824,-0.467,0.068,0.151
23158,-0.800,4.205,8.816,-0.482,0.068,0.166
23168,-0.792,4.221,8.796,-0.482,0.083,0.151
23178,-0.817,4.216,8.805,-0.467,0.083,0.151
23188,-0.800,4.216,8.821,-0.436,0.098,0.166
23198,-0.800,4.219,8.827,-0.452,0.098,0.151
23208,-0.785,4.217,8.798,-0.452,0.083,0.135
23218,-0.776,4.227,8.796,-0.421,0.053,0.120
23228,-0.779,4.215,8.815,-0.467,0.068,0.151
23238,-0.782,4.222,8.793,-0.482,0.083,0.166
23248,-0.803,4.208,8.796,-0.497,0.083,0.166
23258,-0.795,4.207,8.820,-0.482,0.098,0.181
23268,-0.787,4.200,8.804,-0.467,0.068,0.135
23278,-0.793,4.223,8.790,-0.497,0.098,0.166
23288,-0.811,4.234,8.818,-0.482,0.022,0.166
23298,-0.803,4.231,8.794,-0.406,0.037,0.212
23308,-0.784,4.225,8.830,-0.390,0.053,0.212
23318,-0.789,4.213,8.799,-0.421,0.037,0.181
23328,-0.768,4.231,8.786,-0.452,0.007,0.135
23338,-0.776,4.223,8.820,-0.436,0.037,0.135
23348,-0.781,4.235,8.798,-0.482,0.083,0.151
23358,-0.785,4.255,8.796,-0.467,0.053,0.196
23368,-0.786,4.229,8.799,-0.482,0.083,0.135
23378,-0.804,4.222,8.792,-0.452,0.098,0.181
23388,-0.801,4.222,8.806,-0.467,0.068,0.120
23398,-0.795,4.216,8.808,-0.497,0.083,0.120
23408,-0.797,4.231,8.823,-0.436,0.098,0.105
23418,-0.791,4.228,8.809,-0.421,0.098,0.090
23428,-0.779,4.228,8.846,-0.452,0.022,0.151
23438,-0.798,4.228,8.799,-0.406,-0.054,0.151
23448,-0.803,4.216,8.793,-0.406,0.053,0.151
23458,-0.781,4.208,8.809,-0.421,-0.008,0.166
23468,-0.803,4.203,8.809,-0.452,-0.039,0.181
23478,-0.798,4.225,8.775,-0.452,0.053,0.212
23488,-0.784,4.229,8.809,-0.467,0.098,0.181
23498,-0.795,4.225,8.792,-0.513,0.037,0.181
23508,-0.789,4.223,8.823,-0.467,0.037,0.181
23518,-0.800,4.217,8.815,-0.513,-0.008,0.120
23528,-0.812,4.221,8.818,-0.482,0.053,0.120
23538,-0.800,4.214,8.804,-0.497,0.083,0.135
23548,-0.782,4.228,8.821,-0.497,0.068,0.120
23558,-0.797,4.216,8.826,-0.513,0.053,0.120
23568,-0.793,4.215,8.821,-0.452,0.068,0.120
23578,-0.798,4.211,8.816,-0.513,0.022,0.151
23588,-0.797,4.216,8.816,-0.482,0.022,0.181
23598,-0.786,4.213,8.828,-0.421,0.022,0.151
23608,-0.789,4.222,8.811,-0.436,0.007,0.166
23618,-0.789,4.201,8.808,-0.421,0.037,0.151
23628,-0.806,4.208,8.793,-0.482,0.068,0.181
23638,-0.800,4.222,8.799,-0.452,0.022,0.120
23648,-0.793,4.216,8.810,-0.467,0.083,0.135
23658,-0.793,4.210,8.827,-0.482,0.053,0.135
23668,-0.794,4.228,8.774,-0.452,0.068,0.120
23678,-0.815,4.225,8.802,-0.467,0.053,0.074
23688,-0.792,4.210,8.808,-0.482,0.053,0.105
23698,-0.809,4.225,8.814,-0.482,0.068,0.120
23708,-0.789,4.208,8.814,-0.482,0.068,0.059
23718,-0.799,4.204,8.817,-0.497,0.114,0.105
23728,-0.800,4.210,8.818,-0.482,0.053,0.135
23738,-0.784,4.208,8.806,-0.467,0.068,0.135
23748,-0.789,4.217,8.805,-0.467,0.083,0.105
23758,-0.793,4.213,8.833,-0.375,0.068,0.135
23768,-0.795,4.229,8.850,-0.421,0.053,0.151
23778,-0.792,4.225,8.826,-0.482,0.007,0.196
23788,-0.791,4.219,8.790,-0.482,-0.024,0.181
23798,-0.780,4.228,8.805,-0.436,0.022,0.151
23808,-0.789,4.219,8.828,-0.436,0.022,0.135
23818,-0.791,4.200,8.816,-0.452,0.022,0.135
23828,-0.793,4.219,8.806,-0.452,0.053,0.166
23838,-0.806,4.221,8.799,-0.482,0.083,0.151
23848,-0.803,4.208,8.804,-0.497,0.114,0.166
23858,-0.791,4.223,8.826,-0.497,0.098,0.151
23868,-0.810,4.223,8.828,-0.497,0.098,0.105
23878,-0.800,4.220,8.830,-0.482,0.053,0.166
23888,-0.797,4.211,8.816,-0.513,0.022,0.166
23898,-0.775,4.214,8.802,-0.482,0.022,0.196
23908,-0.785,4.221,8.824,-0.482,0.037,0.166
23918,-0.776,4.216,8.810,-0.452,0.053,0.135
23928,-0.803,4.219,8.802,-0.467,0.037,0.135
23938,-0.807,4.222,8.783,-0.452,-0.024,0.151
23948,-0.818,4.221,8.802,-0.390,-0.039,0.181
23958,-0.800,4.214,8.805,-0.406,0.007,0.227
23968,-0.780,4.228,8.821,-0.421,0.098,0.181
23978,-0.785,4.228,8.811,-0.467,0.007,0.151
23988,-0.810,4.221,8.787,-0.497,-0.008,0.135
23998,-0.806,4.235,8.820,-0.513,0.037,0.120
24008,-0.786,4.214,8.824,-0.452,0.083,0.151
24018,-0.803,4.222,8.811,-0.436,0.083,0.151
24048,-0.805,4.203,8.820,-0.436,-0.008,0.166
24058,-0.803,4.213,8.792,-0.436,0.022,0.151
24068,-0.818,4.208,8.823,-0.467,0.053,0.212
24078,-0.788,4.202,8.833,-0.452,0.068,0.181
24088,-0.793,4.205,8.830,-0.436,-0.008,0.151
24098,-0.793,4.211,8.805,-0.406,0.037,0.166
24108,-0.781,4.226,8.788,-0.452,0.022,0.196
24118,-0.797,4.215,8.829,-0.421,0.037,0.212
24128,-0.793,4.209,8.842,-0.482,0.037,0.166
24138,-0.787,4.233,8.809,-0.467,0.083,0.120
24148,-0.789,4.214,8.812,-0.452,0.083,0.135
24158,-0.806,4.220,8.834,-0.421,0.098,0.181
24168,-0.804,4.229,8.808,-0.482,0.022,0.135
24178,-0.791,4.220,8.778,-0.482,0.068,0.135
24188,-0.789,4.217,8.793,-0.497,0.053,0.135
24198,-0.794,4.222,8.823,-0.452,0.114,0.105
24208,-0.815,4.219,8.804,-0.436,0.068,0.181
24218,-0.818,4.216,8.784,-0.452,0.068,0.105
24228,-0.799,4.227,8.772,-0.452,0.068,0.151
24238,-0.792,4.216,8.785,-0.467,0.022,0.120
24248,-0.798,4.217,8.827,-0.406,0.007,0.135
24258,-0.786,4.220,8.832,-0.452,-0.008,0.166
24268,-0.781,4.225,8.823,-0.452,0.068,0.135
24278,-0.811,4.213,8.808,-0.436,0.037,0.135
24288,-0.800,4.219,8.810,-0.482,0.053,0.196
24298,-0.804,4.226,8.811,-0.467,0.068,0.135
24308,-0.794,4.229,8.820,-0.513,0.053,0.120
24318,-0.794,4.228,8.812,-0.513,0.068,0.120
24328,-0.792,4.227,8.808,-0.497,0.053,0.151
24338,-0.767,4.227,8.811,-0.497,0.053,0.166
24348,-0.774,4.214,8.793,-0.467,0.037,0.151
24358,-0.798,4.214,8.822,-0.436,0.037,0.196
24368,-0.801,4.220,8.811,-0.452,0.068,0.120
24378,-0.811,4.228,8.792,-0.452,0.037,0.181
24388,-0.803,4.227,8.815,-0.452,0.053,0.181
24398,-0.810,4.210,8.806,-0.452,0.037,0.135
24408,-0.797,4.209,8.790,-0.421,0.037,0.196
24418,-0.813,4.223,8.814,-0.467,0.037,0.151
24428,-0.795,4.219,8.830,-0.482,0.007,0.196
24438,-0.792,4.204,8.817,-0.467,0.037,0.166
24448,-0.781,4.209,8.830,-0.482,0.037,0.166
24458,-0.793,4.216,8.820,-0.452,0.068,0.196
24468,-0.811,4.220,8.802,-0.436,0.037,0.196
24478,-0.795,4.229,8.797,-0.467,0.068,0.151
24488,-0.779,4.223,8.814,-0.482,0.022,0.181
24498,-0.785,4.225,8.810,-0.436,0.068,0.181
24508,-0.801,4.217,8.797,-0.436,0.037,0.181
24518,-0.788,4.223,8.829,-0.452,0.053,0.135
24528,-0.797,4.208,8.862,-0.436,0.098,0.151
24538,-0.800,4.229,8.823,-0.452,0.053,0.196
24548,-0.804,4.227,8.838,-0.436,0.022,0.166
24558,-0.810,4.217,8.836,-0.452,0.053,0.135
24568,-0.792,4.231,8.814,-0.467,0.068,0.166
24578,-0.776,4.207,8.788,-0.436,0.053,0.151
24588,-0.778,4.207,8.804,-0.467,0.053,0.151
24598,-0.784,4.222,8.810,-0.436,0.114,0.166
24608,-0.793,4.227,8.822,-0.482,0.098,0.120
24618,-0.818,4.223,8.823,-0.467,0.114,0.151
24628,-0.797,4.228,8.811,-0.436,0.068,0.105
24638,-0.795,4.226,8.806,-0.452,0.098,0.151
24648,-0.799,4.207,8.840,-0.390,0.053,0.166
24658,-0.807,4.220,8.817,-0.436,0.053,0.151
24668,-0.786,4.219,8.791,-0.452,0.037,0.135
24678,-0.785,4.221,8.815,-0.436,0.068,0.181
24688,-0.791,4.222,8.802,-0.406,0.068,0.181
24698,-0.792,4.213,8.824,-0.436,0.053,0.135
24708,-0.805,4.217,8.809,-0.482,0.022,0.105
24718,-0.788,4.197,8.812,-0.467,0.053,0.196
24728,-0.797,4.220,8.788,-0.421,0.053,0.151
24738,-0.798,4.209,8.803,-0.436,0.068,0.120
24748,-0.800,4.234,8.810,-0.452,0.022,0.105
24758,-0.804,4.229,8.799,-0.452,0.037,0.166
24768,-0.799,4.221,8.797,-0.467,0.022,0.105
24778,-0.793,4.251,8.811,-0.452,0.098,0.151
24788,-0.785,4.240,8.817,-0.436,0.068,0.151
24798,-0.782,4.228,8.821,-0.452,0.007,0.166
24808,-0.786,4.208,8.815,-0.421,0.083,0.151
24818,-0.788,4.211,8.799,-0.421,0.037,0.196
24828,-0.792,4.214,8.817,-0.482,0.007,0.135
24838,-0.792,4.205,8.821,-0.452,0.007,0.120
24848,-0.794,4.221,8.816,-0.482,0.083,0.120
24858,-0.784,4.207,8.806,-0.482,0.098,0.135
24868,-0.794,4.221,8.780,-0.467,0.037,0.135
24878,-0.791,4.216,8.811,-0.467,0.007,0.135
24888,-0.770,4.203,8.809,-0.497,0.053,0.151
24898,-0.792,4.214,8.796,-0.467,0.083,0.105
24908,-0.782,4.214,8.822,-0.467,0.114,0.135
24918,-0.793,4.232,8.803,-0.436,0.083,0.135
24928,-0.803,4.201,8.809,-0.421,0.022,0.135
24938,-0.779,4.214,8.811,-0.467,0.037,0.151
24948,-0.804,4.214,8.857,-0.467,0.022,0.151
24958,-0.798,4.227,8.817,-0.452,0.007,0.151
24968,-0.791,4.217,8.812,-0.467,0.022,0.120
24978,-0.797,4.215,8.812,-0.467,0.007,0.135
24988,-0.788,4.244,8.800,-0.421,0.037,0.120
24998,-0.801,4.234,8.812,-0.436,0.037,0.166
25008,-0.806,4.203,8.818,-0.406,0.022,0.166
25018,-0.799,4.226,8.812,-0.482,0.053,0.151
25048,-0.791,4.234,8.802,-0.482,-0.008,0.120
25058,-0.803,4.198,8.816,-0.436,0.083,0.074
25068,-0.800,4.217,8.797,-0.406,0.083,0.135
25078,-0.800,4.213,8.823,-0.436,0.098,0.135
25088,-0.805,4.208,8.802,-0.482,0.083,0.135
25098,-0.804,4.227,8.800,-0.452,0.022,0.181
25108,-0.813,4.233,8.842,-0.452,0.068,0.181
25118,-0.788,4.232,8.815,-0.467,0.022,0.135
25128,-0.786,4.232,8.852,-0.436,0.114,0.227
25138,-0.794,4.227,8.829,-0.436,0.114,0.227
25148,-0.775,4.225,8.804,-0.482,0.068,0.181
25158,-0.800,4.219,8.832,-0.406,0.022,0.181
25168,-0.804,4.223,8.796,-0.452,0.037,0.135
25178,-0.794,4.220,8.824,-0.452,0.053,0.166
25188,-0.804,4.211,8.797,-0.452,0.129,0.135
25198,-0.789,4.220,8.793,-0.467,0.129,0.135
25208,-0.792,4.202,8.800,-0.482,0.098,0.166
25218,-0.791,4.227,8.814,-0.482,0.053,0.151
25228,-0.792,4.223,8.821,-0.467,0.022,0.151
25238,-0.797,4.198,8.800,-0.467,0.022,0.135
25248,-0.797,4.188,8.832,-0.467,0.053,0.196
25258,-0.784,4.196,8.844,-0.436,-0.024,0.120
25268,-0.776,4.195,8.806,-0.436,0.007,0.135
25278,-0.789,4.209,8.804,-0.421,0.068,0.120
25288,-0.800,4.210,8.794,-0.421,0.098,0.196
25298,-0.792,4.227,8.833,-0.406,0.068,0.151
25308,-0.782,4.216,8.839,-0.467,0.022,0.151
25318,-0.784,4.209,8.796,-0.467,-0.008,0.059
25328,-0.810,4.210,8.808,-0.452,0.022,0.166
25338,-0.801,4.205,8.796,-0.467,0.098,0.120
25348,-0.801,4.201,8.824,-0.452,0.114,0.120
25358,-0.809,4.215,8.809,-0.467,0.083,0.120
25368,-0.793,4.214,8.816,-0.482,0.053,0.227
25378,-0.794,4.221,8.810,-0.467,0.022,0.151
25388,-0.798,4.219,8.820,-0.421,0.007,0.120
25398,-0.787,4.208,8.859,-0.436,0.053,0.105
25408,-0.810,4.204,8.838,-0.467,0.083,0.120
25418,-0.795,4.196,8.805,-0.482,0.068,0.166
25428,-0.787,4.209,8.812,-0.452,0.022,0.196
25438,-0.797,4.211,8.811,-0.436,0.098,0.151
25448,-0.798,4.217,8.834,-0.421,0.022,0.166
25458,-0.797,4.210,8.820,-0.482,0.007,0.151
25468,-0.801,4.203,8.830,-0.467,0.037,0.151
25478,-0.791,4.219,8.814,-0.421,0.037,0.135
25488,-0.799,4.214,8.814,-0.436,0.022,0.151
25498,-0.803,4.222,8.847,-0.482,0.053,0.105
25508,-0.805,4.213,8.834,-0.482,0.053,0.059
25518,-0.810,4.214,8.839,-0.482,0.083,0.074
25528,-0.792,4.196,8.820,-0.467,0.114,0.135
25538,-0.803,4.209,8.806,-0.482,0.053,0.120
25548,-0.803,4.207,8.818,-0.467,0.037,0.135
25558,-0.795,4.213,8.798,-0.452,0.022,0.120
25568,-0.799,4.192,8.820,-0.467,0.037,0.151
25578,-0.800,4.202,8.803,-0.452,0.114,0.135
25588,-0.797,4.204,8.786,-0.497,0.037,0.166
25598,-0.789,4.238,8.794,-0.467,0.007,0.135
25608,-0.787,4.225,8.800,-0.467,0.053,0.166
25618,-0.804,4.213,8.834,-0.482,0.022,0.151
25628,-0.784,4.210,8.785,-0.436,0.022,0.120
25638,-0.785,4.209,8.788,-0.452,0.037,0.120
25648,-0.776,4.232,8.834,-0.482,0.053,0.151
25658,-0.786,4.226,8.828,-0.482,0.037,0.135
25668,-0.792,4.225,8.793,-0.482,0.068,0.135
25678,-0.797,4.239,8.824,-0.436,0.068,0.196
25688,-0.792,4.232,8.818,-0.467,0.022,0.151
25698,-0.788,4.235,8.822,-0.452,0.022,0.151
25708,-0.780,4.231,8.827,-0.452,0.007,0.120
25718,-0.789,4.234,8.834,-0.452,0.053,0.105
25728,-0.789,4.232,8.835,-0.467,0.037,0.181
25738,-0.798,4.210,8.833,-0.452,0.037,0.105
25748,-0.803,4.210,8.823,-0.482,0.114,0.105
25758,-0.800,4.210,8.780,-0.467,0.068,0.166
25768,-0.804,4.220,8.811,-0.452,0.037,0.181
25778,-0.795,4.227,8.812,-0.436,-0.008,0.181
25788,-0.799,4.214,8.783,-0.421,-0.024,0.120
25798,-0.798,4.210,8.817,-0.421,0.022,0.151
25808,-0.804,4.214,8.818,-0.421,-0.024,0.135
25818,-0.804,4.197,8.830,-0.467,0.114,0.212
25828,-0.773,4.216,8.827,-0.452,0.098,0.151
25838,-0.782,4.216,8.814,-0.436,0.083,0.135
25848,-0.794,4.210,8.802,-0.497,0.053,0.135
25857,-0.789,4.201,8.817,-0.467,0.083,0.120
25868,-0.769,4.207,8.790,-0.452,0.083,0.120
25878,-0.779,4.215,8.806,-0.467,0.053,0.090
25888,-0.795,4.216,8.806,-0.497,0.068,0.120
25898,-0.793,4.213,8.818,-0.467,0.022,0.151
25908,-0.799,4.221,8.821,-0.467,0.068,0.135
25918,-0.809,4.207,8.814,-0.452,0.022,0.135
25928,-0.792,4.220,8.791,-0.421,-0.024,0.151
25938,-0.812,4.222,8.797,-0.436,0.022,0.151
25948,-0.815,4.219,8.811,-0.421,0.022,0.151
25958,-0.813,4.217,8.809,-0.421,0.053,0.120
25968,-0.789,4.233,8.818,-0.436,0.068,0.196
25978,-0.782,4.216,8.814,-0.467,0.068,0.151
25988,-0.784,4.211,8.834,-0.421,0.083,0.151
25998,-0.795,4.220,8.833,-0.436,0.129,0.166
26008,-0.798,4.225,8.791,-0.513,0.098,0.151
26018,-0.794,4.223,8.802,-0.482,0.068,0.135
26048,-0.782,4.232,8.842,-0.467,0.098,0.090
26058,-0.785,4.232,8.834,-0.467,-0.024,0.151
26068,-0.812,4.232,8.827,-0.467,0.037,0.059
26078,-0.803,4.222,8.833,-0.436,0.098,0.166
26088,-0.791,4.226,8.818,-0.421,0.068,0.181
26098,-0.766,4.216,8.806,-0.406,0.022,0.212
26108,-0.792,4.208,8.797,-0.452,0.053,0.212
26118,-0.792,4.214,8.812,-0.390,0.037,0.166
26128,-0.799,4.220,8.797,-0.421,-0.008,0.151
26138,-0.769,4.226,8.787,-0.436,-0.008,0.166
26148,-0.794,4.221,8.814,-0.436,0.053,0.166
26158,-0.810,4.208,8.822,-0.421,0.037,0.166
26168,-0.795,4.213,8.812,-0.482,0.053,0.120
26178,-0.792,4.211,8.820,-0.467,0.037,0.135
26188,-0.797,4.219,8.822,-0.513,0.068,0.135
26198,-0.793,4.215,8.811,-0.482,0.083,0.120
26208,-0.788,4.213,8.822,-0.482,0.068,0.135
26218,-0.792,4.201,8.804,-0.497,0.144,0.135
26228,-0.786,4.219,8.834,-0.482,0.022,0.105
26238,-0.795,4.227,8.817,-0.436,0.083,0.135
26248,-0.795,4.210,8.806,-0.421,0.068,0.135
26258,-0.801,4.202,8.797,-0.452,0.037,0.196
26268,-0.785,4.209,8.800,-0.390,0.037,0.227
26278,-0.792,4.210,8.808,-0.360,0.022,0.196
26288,-0.800,4.226,8.824,-0.390,0.022,0.181
26298,-0.800,4.221,8.806,-0.421,0.022,0.166
26308,-0.787,4.207,8.828,-0.467,-0.008,0.166
26318,-0.773,4.213,8.832,-0.452,0.068,0.181
26328,-0.789,4.217,8.817,-0.497,0.098,0.166
26338,-0.775,4.210,8.798,-0.482,0.114,0.135
26348,-0.786,4.201,8.797,-0.482,0.083,0.181
26358,-0.780,4.215,8.804,-0.436,0.053,0.105
26368,-0.787,4.211,8.811,-0.467,0.083,0.181
26378,-0.784,4.207,8.804,-0.452,-0.024,0.166
26388,-0.784,4.207,8.793,-0.421,0.053,0.166
26398,-0.791,4.213,8.785,-0.390,0.068,0.196
26408,-0.801,4.223,8.796,-0.421,0.068,0.212
26418,-0.795,4.228,8.805,-0.406,0.022,0.196
26428,-0.795,4.223,8.779,-0.436,0.007,0.227
26438,-0.776,4.208,8.798,-0.482,0.022,0.196
26448,-0.780,4.213,8.794,-0.436,-0.008,0.242
26458,-0.785,4.200,8.814,-0.482,0.007,0.196
26468,-0.785,4.209,8.796,-0.497,0.083,0.181
26478,-0.788,4.191,8.810,-0.436,0.053,0.120
26488,-0.795,4.186,8.841,-0.452,0.037,0.105
26498,-0.793,4.207,8.833,-0.497,0.114,0.090
26508,-0.794,4.211,8.811,-0.513,0.098,0.105
26518,-0.791,4.211,8.810,-0.497,0.083,0.135
26528,-0.798,4.211,8.815,-0.482,0.098,0.151
26538,-0.791,4.219,8.812,-0.421,0.098,0.120
26548,-0.805,4.208,8.806,-0.482,0.022,0.151
26558,-0.789,4.216,8.814,-0.467,0.022,0.212
26568,-0.785,4.217,8.828,-0.436,0.007,0.166
26578,-0.795,4.219,8.812,-0.406,-0.024,0.196
26588,-0.798,4.203,8.817,-0.390,0.037,0.166
26598,-0.804,4.237,8.811,-0.390,0.022,0.212
26608,-0.797,4.233,8.787,-0.390,0.068,0.196
26618,-0.785,4.232,8.812,-0.421,0.022,0.135
26628,-0.792,4.216,8.799,-0.452,0.007,0.151
26638,-0.782,4.194,8.830,-0.467,0.068,0.135
26648,-0.778,4.204,8.833,-0.497,0.114,0.166
26658,-0.793,4.215,8.794,-0.513,0.022,0.105
26668,-0.803,4.225,8.824,-0.513,0.114,0.059
26678,-0.799,4.229,8.810,-0.513,0.053,0.105
26688,-0.799,4.217,8.844,-0.482,-0.008,0.135
26698,-0.795,4.201,8.817,-0.436,0.037,0.135
26708,-0.780,4.215,8.829,-0.421,-0.008,0.120
26718,-0.817,4.210,8.824,-0.390,-0.008,0.196
26728,-0.812,4.213,8.800,-0.390,-0.024,0.181
26738,-0.823,4.213,8.823,-0.406,-0.008,0.212
26748,-0.809,4.221,8.791,-0.345,-0.024,0.212
26758,-0.801,4.244,8.802,-0.421,0.007,0.196
26768,-0.799,4.215,8.772,-0.467,0.053,0.212
26778,-0.780,4.231,8.796,-0.452,0.053,0.181
26788,-0.781,4.220,8.793,-0.452,0.037,0.227
26798,-0.803,4.215,8.804,-0.452,0.083,0.181
26808,-0.795,4.233,8.804,-0.452,0.083,0.105
26818,-0.789,4.215,8.816,-0.497,0.022,0.120
26828,-0.789,4.215,8.799,-0.467,0.037,0.120
26838,-0.773,4.229,8.822,-0.482,0.007,0.151
26848,-0.799,4.221,8.847,-0.497,0.053,0.120
26858,-0.811,4.198,8.821,-0.467,0.037,0.135
26868,-0.801,4.221,8.799,-0.436,0.037,0.151
26878,-0.801,4.219,8.790,-0.421,-0.039,0.135
26888,-0.795,4.219,8.804,-0.452,-0.024,0.181
26898,-0.794,4.208,8.790,-0.406,-0.008,0.196
26908,-0.806,4.205,8.796,-0.421,0.037,0.181
26918,-0.791,4.213,8.815,-0.452,0.068,0.196
26928,-0.794,4.217,8.838,-0.421,0.022,0.196
26938,-0.782,4.231,8.797,-0.436,0.037,0.120
26948,-0.788,4.228,8.794,-0.406,0.037,0.105
26958,-0.780,4.225,8.824,-0.467,0.098,0.151
26968,-0.797,4.228,8.799,-0.436,0.114,0.120
26978,-0.792,4.223,8.812,-0.497,0.053,0.074
26988,-0.821,4.227,8.823,-0.497,0.083,0.105
26998,-0.779,4.222,8.805,-0.482,0.037,0.120
27008,-0.779,4.211,8.790,-0.436,0.053,0.151
27018,-0.797,4.226,8.829,-0.452,0.037,0.151
27048,-0.791,4.226,8.808,-0.390,-0.008,0.135
27058,-0.804,4.239,8.865,-0.375,0.022,0.166
27068,-0.792,4.237,8.820,-0.436,0.022,0.181
27078,-0.776,4.223,8.818,-0.406,0.037,0.166
27088,-0.791,4.228,8.827,-0.436,0.098,0.151
27098,-0.799,4.243,8.824,-0.467,0.068,0.151
27108,-0.780,4.239,8.835,-0.467,0.037,0.105
27118,-0.766,4.227,8.839,-0.497,0.053,0.151
27128,-0.789,4.222,8.833,-0.482,0.114,0.120
27138,-0.798,4.227,8.803,-0.497,0.114,0.135
27148,-0.800,4.226,8.794,-0.452,0.083,0.181
27158,-0.779,4.228,8.833,-0.482,0.114,0.120
27168,-0.789,4.225,8.844,-0.467,0.083,0.090
27178,-0.800,4.213,8.815,-0.452,0.083,0.120
27188,-0.813,4.222,8.811,-0.452,0.083,0.105
27198,-0.787,4.213,8.822,-0.421,0.007,0.135
27208,-0.786,4.198,8.812,-0.436,-0.008,0.166
27218,-0.791,4.207,8.793,-0.436,0.037,0.181
27228,-0.770,4.204,8.822,-0.452,0.022,0.242
27238,-0.794,4.219,8.830,-0.467,0.022,0.166
27248,-0.794,4.234,8.820,-0.467,0.037,0.181
27258,-0.799,4.220,8.811,-0.452,0.114,0.135
27268,-0.799,4.208,8.830,-0.452,0.037,0.105
27278,-0.815,4.216,8.844,-0.467,0.114,0.120
27288,-0.800,4.223,8.816,-0.452,0.083,0.135
27298,-0.805,4.221,8.826,-0.452,0.053,0.074
27308,-0.793,4.209,8.792,-0.528,0.068,0.090
27318,-0.798,4.220,8.803,-0.497,0.098,0.120
27328,-0.801,4.208,8.810,-0.528,0.037,0.196
27338,-0.794,4.198,8.816,-0.513,0.007,0.135
27348,-0.785,4.228,8.834,-0.452,0.037,0.166
27358,-0.785,4.226,8.836,-0.452,0.022,0.196
27368,-0.780,4.204,8.835,-0.406,0.037,0.166
27378,-0.778,4.222,8.809,-0.406,-0.024,0.181
27388,-0.792,4.217,8.850,-0.390,0.007,0.181
27398,-0.793,4.223,8.835,-0.467,0.022,0.151
27408,-0.798,4.204,8.805,-0.421,0.083,0.166
27418,-0.786,4.220,8.809,-0.467,0.068,0.181
27428,-0.791,4.237,8.817,-0.497,0.037,0.166
27438,-0.773,4.213,8.821,-0.528,0.022,0.120
27448,-0.786,4.217,8.800,-0.497,0.053,0.120
27458,-0.798,4.222,8.827,-0.497,0.114,0.105
27468,-0.776,4.232,8.827,-0.528,0.144,0.151
27478,-0.782,4.222,8.822,-0.467,0.083,0.105
27488,-0.789,4.217,8.828,-0.452,0.098,0.044
27498,-0.789,4.214,8.794,-0.436,0.068,0.120
27508,-0.794,4.213,8.830,-0.452,0.053,0.166
27518,-0.821,4.232,8.788,-0.406,0.022,0.166
27528,-0.791,4.223,8.780,-0.390,0.053,0.166
27538,-0.795,4.215,8.784,-0.452,0.007,0.181
27548,-0.818,4.220,8.818,-0.436,0.068,0.212
27558,-0.806,4.211,8.818,-0.497,0.053,0.227
27568,-0.792,4.225,8.792,-0.482,0.053,0.151
27578,-0.791,4.225,8.810,-0.482,0.068,0.151
27588,-0.773,4.228,8.805,-0.452,0.144,0.090
27598,-0.774,4.215,8.798,-0.467,0.114,0.105
27608,-0.785,4.208,8.817,-0.497,0.083,0.105
27618,-0.798,4.221,8.787,-0.467,0.068,0.166
27628,-0.794,4.203,8.783,-0.467,0.053,0.105
27638,-0.800,4.209,8.815,-0.482,0.098,0.120
27648,-0.815,4.228,8.842,-0.452,0.037,0.196
27658,-0.813,4.226,8.812,-0.452,0.068,0.181
27668,-0.815,4.214,8.810,-0.436,0.053,0.120
27678,-0.784,4.213,8.833,-0.436,0.022,0.166
27688,-0.786,4.207,8.804,-0.421,-0.008,0.166
27698,-0.785,4.198,8.824,-0.421,0.053,0.181
27708,-0.773,4.219,8.791,-0.452,0.007,0.196
27718,-0.772,4.215,8.816,-0.436,0.037,0.181
27728,-0.798,4.215,8.820,-0.467,0.068,0.151
27738,-0.803,4.215,8.772,-0.452,-0.008,0.166
27748,-0.803,4.221,8.796,-0.436,0.037,0.120
27758,-0.786,4.214,8.800,-0.467,0.053,0.090
27768,-0.794,4.228,8.792,-0.528,0.068,0.135
27778,-0.795,4.233,8.817,-0.513,0.098,0.120
27788,-0.789,4.223,8.818,-0.467,0.007,0.135
27798,-0.795,4.197,8.790,-0.497,0.053,0.135
27808,-0.813,4.216,8.791,-0.513,0.068,0.151
27818,-0.810,4.226,8.799,-0.467,0.068,0.166
27828,-0.807,4.207,8.775,-0.436,0.053,0.181
27838,-0.794,4.211,8.781,-0.406,0.068,0.181
27848,-0.792,4.222,8.804,-0.406,-0.024,0.135
27857,-0.786,4.231,8.804,-0.421,-0.008,0.166
27868,-0.797,4.227,8.806,-0.390,0.007,0.181
27878,-0.797,4.204,8.792,-0.406,0.053,0.135
27888,-0.793,4.220,8.828,-0.436,0.007,0.166
27898,-0.799,4.215,8.826,-0.452,0.007,0.135
27908,-0.791,4.229,8.833,-0.467,0.007,0.090
27918,-0.795,4.207,8.817,-0.467,0.037,0.105
27928,-0.789,4.221,8.809,-0.528,0.083,0.151
27938,-0.793,4.227,8.826,-0.467,0.129,0.135
27948,-0.793,4.247,8.826,-0.513,0.144,0.090
