# Cycle: 1
# Start Time: 2026-01-21 16:05:02
# Sample Rate: 100 Hz
# Format: Timestamp(ms),Ax(m/s²),Ay,Az,Gx(°/s),Gy,Gz
Timestamp,Ax,Ay,Az,Gx,Gy,Gz
21,-0.411,5.423,4.761,-90.437,27.686,17.540
50,-2.925,-2.058,8.307,-74.101,43.992,5.647
60,-3.957,-3.649,10.831,-35.017,35.839,-2.750
70,-5.256,-3.693,12.324,20.434,13.457,-8.017
80,-4.123,-1.493,10.510,73.930,-6.833,-12.460
90,-4.177,2.000,11.393,99.747,-15.352,-18.063
100,-4.115,4.736,10.686,103.564,-26.451,-20.246
110,-3.484,6.923,9.379,94.190,-36.314,-21.666
119,-2.546,8.462,9.055,71.885,-33.612,-21.330
130,-3.628,10.070,8.937,58.801,-40.757,-11.178
140,-2.649,11.022,7.743,25.869,-47.261,-3.895
150,-0.986,11.028,5.283,-11.902,-45.490,4.349
160,-0.141,9.766,5.073,-41.719,-22.833,11.204
170,-0.342,8.679,4.457,-55.734,-11.596,19.204
180,0.781,7.818,3.487,-67.979,8.679,21.815
190,0.530,6.719,3.917,-81.933,25.641,23.800
200,-0.277,4.658,4.424,-95.841,39.045,22.120
210,-1.200,2.021,5.906,-100.620,48.755,14.822
220,-2.489,-0.804,8.057,-91.139,49.595,4.578
230,-2.835,-3.076,8.377,-55.551,42.892,-0.842
240,-4.042,-3.507,11.012,-6.696,34.938,-9.040
250,-4.769,-1.706,12.061,43.243,13.121,-12.704
260,-3.982,0.523,10.670,76.282,-3.398,-14.750
270,-3.809,2.965,11.137,90.358,-12.085,-22.384
280,-3.336,5.295,9.497,93.793,-25.169,-25.498
290,-2.789,7.569,9.418,79.946,-24.268,-29.376
300,-3.175,8.965,9.197,63.595,-27.123,-21.895
310,-3.315,10.049,9.369,42.801,-30.772,-13.773
320,-1.949,10.679,6.871,16.633,-41.932,1.051
330,-1.171,10.445,6.607,-11.276,-32.207,10.487
340,-0.704,9.652,5.552,-35.200,-23.367,18.792
350,0.002,8.407,4.520,-55.597,-10.497,21.464
360,0.487,7.173,4.511,-69.246,9.961,21.601
370,-0.276,5.823,5.083,-80.177,22.969,23.051
380,-0.921,3.765,5.638,-90.040,32.221,20.364
390,-1.424,1.001,6.498,-93.765,38.557,12.456
400,-2.014,-2.243,7.479,-75.551,41.121,2.960
410,-3.224,-4.155,9.747,-33.184,42.831,-7.483
420,-4.989,-3.606,12.125,19.594,25.778,-18.399
430,-4.522,-1.380,11.202,71.992,3.732,-19.819
440,-4.414,2.064,10.979,101.854,-11.321,-22.766
450,-3.740,5.497,10.022,101.167,-23.001,-25.880
460,-3.487,7.664,9.725,78.938,-29.184,-28.949
470,-3.027,8.535,9.097,51.869,-29.932,-27.117
480,-3.607,8.999,9.506,38.617,-33.627,-17.498
490,-2.793,9.480,8.268,20.434,-41.825,-7.269
500,-2.479,10.136,8.036,3.778,-42.421,4.120
510,-1.273,10.001,6.446,-22.864,-39.337,15.342
520,-0.415,8.659,5.270,-47.230,-28.650,25.158
530,0.289,7.238,4.749,-68.162,-6.329,23.387
540,-0.257,5.908,5.711,-80.223,12.297,20.105
550,-1.010,4.401,6.168,-90.543,20.633,16.029
560,-1.056,2.176,6.375,-98.467,26.816,9.723
570,-1.322,-0.594,7.046,-95.734,34.816,1.174
579,-2.052,-3.011,8.177,-65.490,43.183,-4.674
590,-3.995,-3.768,10.733,-21.062,36.877,-12.277
600,-4.340,-2.404,11.550,28.877,20.633,-16.521
610,-4.319,-0.190,11.034,69.686,-0.879,-16.979
620,-3.165,2.702,10.505,86.159,-6.970,-21.071
630,-3.094,5.146,9.832,79.152,-15.947,-26.109
640,-2.896,6.462,9.904,60.572,-19.276,-29.895
650,-2.939,7.099,9.544,48.511,-28.619,-26.384
660,-2.430,7.798,9.114,39.946,-33.841,-23.346
670,-2.102,8.980,8.142,27.488,-36.436,-10.033
680,-1.645,9.117,7.741,6.617,-32.192,-1.346
690,-0.758,9.042,5.890,-11.169,-25.291,9.479
700,-0.118,7.790,5.986,-28.406,-3.154,15.479
710,-0.560,7.386,5.111,-32.604,8.526,19.280
720,-0.778,7.626,6.053,-46.391,23.259,16.624
730,-0.780,7.177,5.045,-63.062,30.129,19.448
740,-1.143,5.510,5.738,-84.040,39.244,16.822
750,-1.356,2.630,5.982,-86.574,46.954,15.662
760,-2.947,-0.206,8.832,-69.215,49.534,8.975
770,-2.834,-1.372,8.426,-29.093,41.671,5.174
780,-4.189,-1.225,11.209,1.686,31.121,-2.307
790,-5.088,-0.835,11.903,27.732,10.847,-6.567
800,-4.274,-0.242,11.012,54.022,-4.512,-10.689
810,-4.184,1.674,11.703,69.625,-14.176,-20.292
820,-4.127,3.984,10.688,78.556,-28.207,-21.972
830,-2.886,5.419,9.646,67.533,-35.825,-24.491
840,-3.082,6.241,9.835,60.495,-36.894,-23.376
850,-3.109,7.385,9.613,54.083,-42.268,-17.819
860,-2.105,8.255,7.667,46.678,-50.940,-3.010
870,-0.946,8.583,6.674,29.900,-41.184,2.532
880,-0.703,9.560,5.283,10.739,-31.932,10.288
890,0.301,9.195,4.366,-23.933,-8.955,15.067
900,0.422,7.755,4.450,-48.574,14.129,19.738
910,-0.379,6.518,5.004,-62.910,29.686,19.677
920,-0.817,5.133,5.060,-72.833,39.915,19.677
930,-1.246,3.072,5.838,-82.605,49.839,16.013
940,-2.105,0.066,7.204,-77.337,55.564,10.227
950,-3.244,-2.116,9.321,-51.673,55.152,2.242
960,-5.297,-2.711,12.388,-13.627,36.297,-7.743
970,-4.989,-1.166,11.723,31.900,9.778,-9.620
980,-4.764,1.137,11.590,55.839,-8.329,-12.475
990,-3.892,3.037,10.739,65.991,-19.947,-14.872
1000,-3.603,4.741,10.269,63.304,-30.833,-19.712
1010,-2.584,5.743,9.413,51.335,-30.619,-21.972
1020,-3.269,6.777,10.236,50.785,-32.696,-17.987
1049,-0.732,9.378,6.064,0.281,-28.054,11.616
1059,-0.877,9.092,5.772,-21.749,-15.886,17.876
1069,0.065,8.191,4.784,-50.803,2.602,18.532
1079,-0.611,7.220,5.622,-66.421,16.541,19.662
1089,-0.894,6.558,5.064,-75.948,24.709,22.410
1099,-0.755,5.346,5.273,-91.612,34.297,22.120
1109,-0.937,2.944,5.635,-99.673,46.419,20.761
1119,-2.123,-0.272,7.883,-92.834,54.007,12.548
1129,-3.325,-2.774,8.847,-60.101,45.763,3.189
1139,-3.202,-3.104,10.043,-14.497,46.068,-4.109
1149,-5.335,-1.979,12.948,26.785,27.992,-10.704
1159,-4.851,-0.051,11.468,61.274,3.824,-10.521
1169,-4.230,2.301,10.965,74.221,-9.581,-15.682
1179,-3.706,4.245,10.819,67.701,-16.405,-21.514
1189,-3.743,5.600,10.275,60.709,-25.062,-23.819
1199,-3.087,6.577,9.823,51.335,-28.146,-20.842
1209,-2.607,7.471,9.055,40.923,-28.635,-15.819
1219,-2.871,8.488,8.930,30.510,-30.894,-5.804
1229,-2.407,9.466,7.729,12.373,-34.909,7.067
1239,-0.942,8.976,6.073,-13.520,-29.123,17.647
1249,-0.290,7.871,4.767,-33.856,-14.573,23.357
1259,-0.181,6.863,5.564,-50.498,9.976,23.311
1269,-0.349,6.225,4.691,-63.001,19.671,22.700
1279,-0.530,5.472,5.525,-83.490,32.679,17.403
1289,-0.616,3.029,5.052,-97.566,41.946,17.326
1299,-2.125,-0.791,7.985,-87.811,57.030,12.868
1309,-2.646,-2.843,8.195,-43.108,55.518,7.647
1319,-4.817,-2.534,12.204,-2.543,46.480,-3.819
1329,-5.616,-1.706,12.747,36.037,13.152,-7.651
1339,-4.301,-0.523,10.886,73.427,-8.039,-8.048
1349,-4.006,2.199,11.873,88.404,-16.314,-18.552
1359,-4.256,4.599,10.686,84.266,-32.482,-25.178
1369,-3.086,5.988,9.520,72.007,-39.703,-27.880
1379,-2.494,6.600,9.027,59.778,-37.428,-25.254
1389,-3.182,7.421,9.576,55.427,-36.421,-17.147
1399,-2.907,9.098,8.396,46.266,-43.749,-2.659
1409,-2.019,9.543,7.363,24.923,-44.970,8.441
1419,-0.758,9.173,5.388,-2.238,-36.650,16.380
1429,-0.792,8.417,5.628,-22.513,-19.566,20.700
1439,-0.351,7.857,4.952,-37.841,-1.825,25.708
1449,-0.861,6.777,5.829,-50.910,11.228,28.349
1459,-1.207,5.172,5.689,-58.055,15.656,30.990
1469,-1.596,3.026,6.902,-63.169,19.976,28.777
1479,-2.157,0.406,7.929,-57.627,16.221,23.204
1489,-2.209,-1.616,8.415,-37.536,13.030,13.433
1499,-4.025,-3.011,11.624,-6.177,2.404,0.945
1509,-3.603,-2.426,11.051,51.518,-16.054,-2.078
1519,-3.799,0.047,12.168,92.114,-29.749,-5.101
1529,-3.635,2.824,11.318,110.572,-46.268,-4.414
1539,-3.177,4.249,10.159,118.572,-59.444,-6.033
1549,-1.843,4.796,8.724,117.534,-56.131,-11.651
1559,-2.335,5.491,9.598,146.389,-53.948,-7.712
1569,-1.955,8.824,7.056,148.709,-53.917,8.746
1579,-1.842,10.825,6.006,118.908,-53.261,19.922
1589,-1.091,11.089,6.343,90.694,-42.909,35.082
1599,-0.714,11.065,5.733,54.801,-42.574,48.945
1609,0.163,9.984,4.551,25.259,-31.841,62.044
1619,0.709,8.107,3.659,-0.650,-10.405,65.372
1629,1.343,6.013,3.165,-27.398,13.640,55.632
1639,0.691,3.575,3.691,-39.841,38.236,32.792
1649,0.086,1.868,5.892,-12.971,46.114,22.242
1659,-0.113,2.635,6.056,-8.421,58.831,11.158
1669,-0.945,2.412,7.433,-19.734,67.748,-3.910
1679,-2.628,1.574,9.666,-5.276,63.534,-12.704
1689,-4.333,3.223,11.664,14.419,47.106,-12.475
1698,-5.009,3.449,12.850,30.801,14.831,-6.918
1709,-3.611,4.070,11.179,44.846,-14.268,-2.430
1719,-2.505,5.089,10.318,57.091,-25.169,-0.582
1729,-1.790,6.830,9.654,60.282,-31.489,4.792
1739,-0.058,7.998,9.591,56.617,-59.642,-3.804
1749,-0.392,15.941,8.800,-13.887,-51.993,-7.559
1759,-4.941,12.989,10.554,-61.688,-90.223,17.906
1769,-2.317,9.650,6.592,-89.047,-129.872,29.235
1779,0.991,6.937,2.491,-101.750,-116.162,23.586
1789,3.042,6.035,0.689,-107.002,-53.596,4.257
1799,3.123,5.191,1.933,-107.811,1.640,-8.689
1809,1.752,4.530,3.397,-105.063,47.442,-21.101
1819,0.520,4.073,5.165,-89.780,69.015,-19.056
1829,-0.338,3.289,5.474,-83.795,75.320,-10.933
1839,-0.858,1.370,6.597,-75.337,91.427,-13.010
1849,-2.553,0.475,10.266,-66.146,91.870,-19.575
1859,-4.310,-0.112,11.651,-55.032,58.328,-22.384
1869,-4.523,0.335,12.218,-34.849,30.236,-24.521
1879,-3.488,1.759,10.594,-13.994,2.358,-30.582
1889,-2.726,4.603,10.587,-25.398,-9.459,-41.422
1899,-2.602,6.168,10.032,-38.116,-19.322,-41.590
1909,-2.333,6.051,9.755,-32.146,-24.283,-27.651
1919,-8.250,2.807,13.020,12.159,-21.856,35.357
1929,9.464,9.405,6.670,39.793,-22.283,-32.857
1939,0.951,9.513,8.094,-14.070,28.114,-18.201
1949,-4.783,8.176,9.707,-25.154,10.831,0.502
1959,-3.976,7.982,8.165,-33.093,-19.459,10.135
1969,-0.986,9.151,6.534,-69.704,-18.619,13.342
1979,-0.070,6.487,6.252,-121.460,-4.237,12.380
1989,-0.900,4.010,7.171,-96.910,5.137,17.235
1999,0.123,2.556,6.145,-72.467,12.770,20.593
2009,0.040,1.778,6.598,-53.856,31.457,22.868
2019,-1.338,0.952,7.415,-46.513,35.503,14.822
2049,-3.023,-1.936,10.241,-40.955,19.824,-19.880
2059,-3.281,-1.962,11.535,-8.742,11.198,-25.987
2069,-4.149,0.305,11.958,30.571,-4.085,-30.949
2079,-4.217,3.913,12.166,44.892,-21.123,-29.025
2089,-2.934,6.012,10.818,33.976,-38.085,-24.552
2099,-1.770,6.071,10.600,8.892,-37.749,-23.483
2109,-7.397,0.441,13.558,-0.787,-41.337,17.769
2119,5.783,9.288,8.113,31.564,-53.673,-32.598
2129,-1.949,9.024,8.064,-39.307,-18.894,-17.941
2139,-3.044,5.702,10.008,-50.925,-32.848,-6.643
2149,-1.198,5.315,7.827,-25.337,-41.657,15.677
2159,1.013,6.144,6.218,-26.894,-17.886,24.090
2169,0.288,6.235,6.623,-42.467,0.159,22.563
2179,-0.223,4.873,7.099,-64.543,8.221,19.540
2189,-1.393,3.672,7.633,-53.169,10.282,25.968
2199,-1.186,1.945,7.566,-58.162,9.106,23.342
2209,-1.104,-0.355,7.144,-65.307,6.465,9.067
2219,-0.973,-2.428,8.958,-55.261,13.671,-0.750
2229,-1.471,-4.168,9.343,-20.696,15.915,-14.063
2239,-0.507,-5.143,8.829,39.426,27.060,-25.285
2249,-1.090,-4.295,9.884,97.946,49.167,-44.796
2259,-3.063,-1.269,10.415,150.648,52.160,-55.712
2269,-3.102,4.032,10.509,174.526,49.396,-41.880
2279,-3.551,7.326,10.408,149.656,31.457,-29.117
2289,-4.268,8.361,11.283,117.381,12.953,-19.895
2299,-4.894,8.472,11.451,99.076,-15.581,-4.903
2309,-3.435,8.532,10.069,76.022,-35.932,7.357
2319,-2.973,8.431,9.535,48.037,-47.062,11.494
2329,-2.943,8.345,9.655,34.968,-62.772,17.204
2339,-2.140,8.294,8.235,29.610,-83.734,29.387
2349,-0.197,6.739,5.834,34.052,-93.307,43.235
2359,0.162,6.716,5.953,30.098,-81.520,50.899
2369,0.355,5.198,5.546,11.335,-77.032,59.220
2379,-0.022,3.631,5.384,-10.665,-63.505,46.242
2389,-0.167,0.936,5.577,-29.688,-52.329,28.212
2399,-0.677,-1.328,6.920,-31.658,-34.528,4.288
2409,-1.596,-2.635,9.327,-18.299,-27.169,-13.407
2419,-1.456,-3.255,9.727,24.449,-28.848,-20.109
2429,-1.468,-0.496,9.957,64.572,-21.917,-24.933
2439,-1.228,2.743,10.017,78.953,-20.192,-32.079
2449,-2.515,6.983,10.904,74.434,-27.428,-34.567
2459,-2.902,9.493,11.211,52.312,-51.276,-26.827
2469,-1.571,9.033,9.860,16.862,-69.444,-24.430
2479,0.009,7.774,8.504,-2.253,-66.940,-21.193
2489,0.673,7.456,8.100,-3.780,-55.658,-13.132
2499,1.036,8.028,7.395,-1.276,-43.261,-1.117
2509,1.809,9.099,6.384,-13.154,-20.604,9.677
2519,2.957,8.799,4.083,-24.864,9.656,19.464
2529,1.705,7.259,4.375,-41.017,46.801,25.571
2539,0.451,5.746,6.314,-40.421,68.877,19.494
2549,-0.679,4.563,7.206,-39.444,60.770,14.563
2559,0.002,3.570,6.685,-45.551,54.007,9.296
2569,0.086,1.089,6.002,-67.047,60.099,-2.888
2579,0.214,-1.253,5.760,-71.246,80.175,-20.949
2589,-0.119,-0.998,6.288,-61.978,105.855,-31.330
2599,-1.513,0.274,8.537,-74.650,127.244,-40.170
2609,-3.003,1.396,11.131,-94.574,123.045,-45.453
2619,-4.884,2.787,13.109,-105.734,91.519,-47.330
2629,-5.310,3.362,13.928,-92.772,40.282,-44.017
2639,-5.493,4.261,14.269,-74.101,-10.222,-42.277
2648,-3.979,4.999,12.357,-62.818,-45.825,-38.445
2659,-2.662,5.628,11.381,-67.505,-58.726,-35.559
2669,-1.375,6.136,9.777,-73.093,-64.222,-29.071
2679,-2.273,7.408,10.922,-99.673,-75.032,-30.140
2689,-2.118,8.078,9.865,-126.467,-91.245,-20.094
2699,-2.088,6.648,10.367,-147.735,-99.703,-5.117
2709,-0.442,4.190,7.794,-131.551,-101.078,9.143
2719,0.999,2.376,6.546,-94.757,-70.894,17.219
2729,2.176,2.713,5.140,-64.986,-28.909,19.632
2739,1.420,2.837,6.442,-54.391,5.961,23.494
2749,0.050,1.292,7.511,-46.757,13.686,29.021
2759,0.196,-1.412,6.801,-32.238,19.427,29.128
2769,0.184,-3.667,5.384,-12.803,30.999,18.105
2779,-0.247,-3.699,8.587,5.426,57.045,1.265
2789,-3.060,-3.718,12.448,18.037,41.564,-14.414
2799,-2.653,-2.359,11.130,45.167,19.366,-17.666
2809,-2.453,-1.184,12.235,53.747,14.587,-24.231
2819,-2.184,-0.837,11.657,81.213,2.801,-23.498
2829,-1.314,-0.468,11.386,106.618,1.060,-26.017
2839,-0.579,1.373,10.079,138.847,4.755,-25.804
2849,-1.942,4.148,11.571,145.961,5.946,-32.491
2859,-2.777,7.519,10.693,145.106,-9.199,-19.269
2869,-2.037,9.111,9.563,117.106,-16.757,-0.720
2879,-1.144,9.266,8.159,85.320,-18.772,14.090
2889,-1.134,8.517,7.885,47.167,-8.283,22.181
2899,-1.964,8.051,7.882,3.197,-5.856,22.319
2909,0.962,6.057,4.902,-24.253,3.900,28.105
2919,1.691,4.967,3.848,4.694,41.564,48.548
2929,0.609,3.741,5.133,4.220,71.228,56.945
2939,-0.393,0.143,6.811,-8.131,82.160,52.502
2949,-2.115,-2.815,9.146,9.625,81.137,33.464
2959,-2.777,-1.432,8.974,38.556,65.549,17.296
2969,-3.724,-0.405,11.082,69.213,52.541,14.670
2979,-3.496,0.441,11.744,96.831,38.908,14.196
2989,-3.161,2.142,11.676,109.793,20.465,10.700
2999,-3.774,3.899,13.563,101.396,-2.131,3.128
3009,-4.151,6.806,13.358,64.205,-38.192,-2.765
3019,-3.934,7.695,13.863,16.037,-78.665,-5.010
3049,-1.296,7.415,7.402,-67.215,-172.437,14.838
3059,0.143,6.689,5.713,-85.780,-158.406,8.502
3069,2.722,5.592,2.825,-99.795,-123.963,-3.956
3079,4.368,5.002,2.723,-118.773,-73.413,-21.880
3089,4.004,3.792,3.586,-112.879,-24.222,-30.582
3099,2.080,3.289,6.026,-79.673,6.495,-21.040
3109,1.012,2.192,6.746,-57.139,13.640,-11.117
3119,0.458,1.033,7.014,-54.635,12.221,-11.468
3129,0.804,-1.845,6.405,-45.352,23.182,-14.170
3139,-0.721,-4.931,9.146,-34.330,26.312,-39.071
3149,-2.028,-1.058,11.428,1.426,24.236,-64.353
3159,-2.932,3.675,12.052,-15.032,-2.482,-55.605
3169,-2.154,2.648,11.982,-46.101,-33.719,-48.811
3179,-1.193,2.010,11.214,-53.963,-44.161,-48.155
3189,-0.408,2.818,11.624,-66.146,-52.406,-62.705
3199,0.403,4.062,10.622,-64.498,-56.787,-64.582
3209,-0.204,5.216,11.114,-73.124,-58.314,-56.582
3219,-0.610,5.187,11.089,-73.887,-51.230,-42.445
3229,-1.400,3.306,12.683,-46.864,-53.596,-16.460
3239,-0.390,4.542,10.751,-21.566,-56.054,-0.368
3249,0.824,7.227,8.719,-25.475,-50.833,9.647
3259,1.383,7.359,7.785,-53.261,-35.688,22.609
3269,0.636,5.055,7.740,-71.047,-32.650,31.937
3279,1.841,2.648,6.920,-59.627,-20.268,44.517
3289,1.406,1.334,6.667,-44.314,-8.955,46.990
3299,1.775,0.201,6.182,-31.291,6.908,45.219
3309,0.655,-1.003,7.777,-23.200,20.984,36.151
3319,-0.503,-1.871,8.851,-14.039,22.892,26.471
3329,-0.335,-3.473,9.027,-9.184,16.541,13.571
3339,-0.604,-5.389,9.794,12.144,14.831,0.120
3349,-0.148,-5.346,10.153,54.511,20.007,-11.040
3359,-0.114,-2.440,11.210,86.175,22.999,-26.460
3369,0.172,1.894,10.798,90.450,22.724,-34.521
3379,0.657,3.812,10.746,73.167,22.572,-35.605
3389,0.463,4.446,10.470,53.747,26.328,-31.712
3399,-1.764,5.387,12.501,43.457,18.587,-27.651
3409,-1.711,7.354,12.075,32.617,2.480,-10.689
3419,-1.793,7.863,11.775,12.862,-17.031,7.509
3429,-0.629,7.251,9.039,-6.452,-27.917,27.433
3439,0.138,5.984,9.497,-20.696,-13.932,44.578
3449,1.271,5.605,6.036,-38.452,-20.848,52.013
3459,3.217,3.158,3.825,-50.452,17.579,58.868
3469,2.198,0.388,5.773,-39.856,53.595,66.288
3479,0.853,-1.469,6.951,-26.070,65.809,56.746
3489,0.107,-1.980,8.276,-2.345,78.450,43.097
3499,-0.336,-0.492,8.938,11.549,79.290,26.181
3509,-1.645,1.190,10.771,5.426,69.763,12.380
3519,-2.225,1.356,10.948,-8.421,48.969,7.341
3529,-1.422,0.966,9.756,-20.772,33.137,1.464
3539,-0.083,-0.358,8.262,-21.444,37.976,-1.865
3549,0.254,-0.547,8.638,1.930,59.534,-1.910
3559,-0.998,-0.779,10.230,13.350,61.595,-7.086
3569,-1.302,-0.310,10.305,42.724,58.618,-3.239
3579,-1.475,1.714,10.425,68.663,57.870,-3.010
3589,-2.537,3.997,11.852,61.839,47.091,-3.575
3599,-2.588,4.593,11.923,38.739,27.412,-2.842
3609,-1.829,3.907,11.377,17.365,11.686,-4.827
3619,-3.041,4.389,12.972,25.335,-6.970,1.235
3628,-0.991,4.483,10.126,1.686,-28.772,-3.239
3639,-0.211,3.275,9.407,-15.047,-29.795,-7.834
3649,-0.661,2.501,9.271,-14.055,-27.062,-9.452
3659,-0.211,3.075,8.183,-10.818,-22.711,-6.659
3669,-0.810,2.680,9.885,-1.688,-10.863,2.319
3679,-1.788,3.588,10.194,13.396,-13.917,10.700
3689,-1.677,5.350,9.526,1.991,-22.604,10.074
3699,-0.795,5.689,8.541,-23.032,-27.123,13.616
3709,0.415,4.364,7.238,-44.085,-21.291,16.334
3719,0.520,2.939,7.281,-50.177,-8.161,15.296
3729,0.457,2.205,7.269,-49.475,1.839,12.456
3739,0.483,1.547,7.479,-53.001,12.007,5.738
3749,0.649,0.629,7.710,-58.391,24.648,-1.040
3759,-0.800,-0.596,9.640,-52.894,32.557,-6.475
3769,-1.657,-1.779,11.190,-35.047,27.839,-9.636
3779,-1.965,-2.696,12.031,-5.337,16.098,-11.666
3789,-2.470,-2.474,13.027,29.365,4.373,-15.773
3799,-2.579,-1.119,12.795,59.381,-16.054,-18.659
3809,-2.033,0.462,12.494,73.472,-28.925,-22.048
3819,-1.770,1.763,11.787,68.938,-40.238,-27.758
3829,-0.934,2.073,10.948,56.892,-43.230,-31.758
3839,-0.710,2.433,10.782,58.251,-44.115,-30.995
3849,-0.623,3.880,10.187,64.556,-46.207,-24.369
3859,-0.707,6.304,9.802,60.007,-44.390,-13.254
3869,0.094,8.077,8.663,31.655,-43.032,2.654
3879,0.615,8.209,7.730,-3.749,-40.085,16.960
3889,1.659,6.959,6.332,-38.207,-28.192,26.792
3899,1.495,5.102,6.545,-56.727,-12.757,35.021
3909,0.811,3.783,6.753,-66.314,-5.108,39.952
3919,1.236,2.168,5.919,-78.971,4.785,41.357
3929,1.036,-0.440,6.076,-84.879,19.824,37.052
3939,0.131,-2.847,6.989,-70.421,33.167,30.502
3949,-0.764,-4.269,7.808,-38.589,42.557,23.372
3959,-1.322,-4.592,9.008,1.961,50.175,13.922
3969,-2.918,-3.507,11.367,45.182,44.404,4.502
3979,-3.579,-1.324,12.209,81.992,28.236,3.189
3989,-3.511,1.566,12.946,98.953,12.572,-1.697
3999,-3.123,4.177,12.379,81.182,-3.489,-11.162
4009,-2.719,4.528,12.404,49.381,-15.963,-17.682
4019,-1.879,3.929,11.126,31.365,-29.322,-19.620
4049,3.076,6.023,5.931,-3.703,-32.207,6.456
4058,2.248,4.331,6.785,-10.986,-7.276,9.845
4069,1.280,3.425,7.000,-2.452,6.633,16.105
4079,0.623,3.132,8.429,5.167,16.816,20.242
4089,-0.956,3.363,9.926,12.342,9.045,29.097
4099,-0.865,3.721,9.346,2.526,-5.413,31.754
4109,0.907,2.472,8.100,-20.207,-4.436,26.975
4119,1.067,0.942,7.321,-25.169,2.221,22.013
4129,1.058,0.345,7.346,-17.261,13.732,15.891
4139,0.676,0.370,7.642,-5.215,20.618,11.815
4149,0.412,0.653,7.868,-0.543,28.877,2.380
4159,-0.714,0.740,9.310,-2.314,33.106,-11.849
4169,-1.242,0.740,10.684,1.014,28.587,-22.781
4179,-1.668,0.708,11.282,11.732,15.625,-29.330
4189,-1.358,1.391,11.493,25.640,8.114,-30.323
4199,-1.211,2.637,11.261,37.533,-0.466,-25.117
4209,-1.410,3.636,11.861,39.213,-5.902,-19.361
4219,-1.757,3.972,12.034,35.762,-17.062,-12.445
4229,-1.065,3.327,11.476,28.022,-24.864,-11.147
4239,-0.799,2.786,10.864,25.961,-31.184,-16.888
4249,-0.465,3.069,10.612,31.320,-35.413,-23.926
4259,-2.462,6.324,12.732,54.053,-42.879,-15.727
4269,-0.296,9.169,8.014,25.701,-71.062,-5.544
4279,3.593,6.575,4.817,-28.513,-49.047,-6.811
4289,2.680,3.375,7.101,-37.429,-12.054,-5.575
4299,-0.214,3.122,8.492,-17.963,-5.260,-2.002
4309,-0.207,3.522,8.944,-12.635,-5.596,3.189
4319,-1.326,3.305,9.646,-13.749,-9.886,10.044
4329,-0.821,3.287,8.300,-27.597,-13.963,6.227
4339,0.052,2.314,8.113,-45.215,-5.001,-0.842
4349,-0.482,1.567,7.114,-42.986,-6.344,0.135
4359,0.432,1.015,6.502,-28.589,1.747,-1.819
4369,0.276,1.352,6.810,-18.299,11.793,-8.201
4379,0.760,1.848,6.570,-11.841,15.610,-8.949
4389,0.537,1.938,7.654,-10.711,22.587,-8.078
4399,0.053,1.378,8.350,-11.520,24.358,-7.727
4409,-0.603,0.619,9.762,-7.536,23.595,-7.727
4419,-0.631,0.534,9.520,1.533,14.266,-8.063
4429,-0.647,0.389,10.043,10.220,12.679,-9.788
4439,-0.519,0.164,9.865,24.480,11.289,-13.193
4449,-0.651,0.566,10.199,41.030,14.068,-19.101
4459,-0.953,1.780,10.218,52.556,13.564,-24.704
4469,-1.495,2.510,10.861,56.144,13.198,-30.246
4479,-2.669,3.595,11.347,61.824,1.030,-34.689
4489,-0.992,5.326,10.153,61.259,-9.092,-34.246
4499,-0.731,7.181,9.896,45.213,-12.253,-32.857
4509,-0.242,7.484,10.238,25.854,-15.413,-20.735
4519,-0.037,8.582,8.742,6.037,-27.978,-10.338
4529,1.216,8.364,7.785,-26.070,-19.825,2.975
4539,1.999,7.344,6.513,-56.849,-5.718,12.929
4549,0.755,5.149,7.791,-91.902,-0.802,13.204
4559,1.812,2.029,6.174,-107.398,17.350,7.051
4568,-0.021,-0.504,8.547,-85.124,32.892,7.021
4579,-1.205,-0.989,8.760,-44.742,28.770,11.341
4589,-1.900,-0.923,10.174,-18.223,31.106,5.143
4599,-2.216,0.857,11.055,0.541,30.053,-2.872
4609,-3.137,1.951,12.094,-0.696,14.037,-7.712
4619,-1.765,1.421,11.070,-11.398,-2.848,-11.758
4629,-1.730,-0.961,11.729,-8.864,-9.398,-20.781
4639,-0.515,-0.448,10.314,9.091,-9.642,-31.911
4649,-0.241,1.306,9.984,17.091,-11.810,-38.384
4659,-0.312,2.314,10.287,22.220,-7.337,-36.995
4669,-0.187,3.083,9.903,22.556,-6.925,-37.834
4679,0.318,4.300,9.258,15.991,-3.398,-38.582
4689,-0.272,4.735,9.739,3.121,0.908,-36.369
4699,-1.019,4.410,10.197,-4.223,-0.146,-31.361
4709,-0.952,4.117,10.016,-3.383,-6.543,-24.277
4719,-0.754,4.032,9.503,-0.726,-9.291,-15.132
4729,-0.558,3.978,9.336,1.426,-7.856,-4.567
4739,-0.427,3.857,9.410,0.434,-4.925,5.112
4749,-0.451,3.474,9.389,-4.436,-3.062,10.334
4759,-0.378,2.879,9.358,-11.215,-1.703,12.013
4769,-0.387,2.020,9.279,-17.230,0.388,10.319
4779,-0.569,1.294,9.273,-17.093,2.801,7.433
4789,-0.939,1.422,9.385,-14.589,4.144,5.082
4799,-1.364,1.626,9.567,-14.161,2.114,4.548
4809,-1.466,1.536,9.617,-11.765,-2.589,6.135
4818,-0.965,1.648,8.938,-7.887,-6.329,7.311
4829,-0.384,1.657,8.568,-7.047,-4.528,7.357
4839,-0.019,0.702,8.310,-1.459,-2.757,7.189
4849,0.317,0.584,8.146,13.472,2.755,4.425
4858,-0.191,2.321,8.863,19.533,10.404,-2.094
4868,-1.259,3.741,9.717,11.182,5.885,-3.804
4879,-0.687,3.787,9.726,-1.444,-0.955,-1.498
4889,-0.324,2.860,9.316,-9.230,-5.306,-1.620
4899,0.177,1.890,9.174,-6.299,-1.245,-2.139
4909,0.228,1.787,8.969,3.381,2.037,-2.582
4919,-0.338,1.971,9.480,17.106,3.045,0.364
4928,-0.394,2.519,9.862,25.671,4.144,2.578
4938,-0.246,3.334,9.734,26.297,2.236,2.288
4949,-0.745,4.095,10.340,20.709,1.442,2.975
4959,-1.006,4.098,10.400,12.862,-3.917,5.525
4969,-0.445,3.590,9.887,6.205,-8.512,6.044
4979,-1.249,3.111,11.037,9.579,-6.192,8.196
4989,-0.991,3.731,9.910,8.938,-13.321,10.853
4999,-1.115,3.080,10.599,1.503,-13.596,10.685
5009,-1.648,2.773,10.689,5.350,-21.444,13.845
5019,-0.675,2.975,9.265,7.762,-28.131,18.441
5049,0.930,2.601,6.799,-12.452,2.419,23.082
5059,0.822,1.951,6.565,-16.345,18.679,23.784
5069,0.523,1.340,6.433,-12.925,36.144,24.777
5079,-0.145,1.186,7.278,-7.658,48.663,24.746
5089,-0.355,1.408,7.605,-4.238,54.328,25.342
5099,-1.498,0.919,8.739,-1.932,52.877,25.479
5109,-1.516,0.169,9.597,9.869,52.373,25.494
5119,-1.812,-0.074,10.554,27.655,45.992,21.357
5129,-2.255,0.910,11.482,49.762,37.137,16.853
5139,-1.914,3.690,11.322,57.854,24.694,13.433
5149,-2.433,5.212,12.683,46.862,15.228,17.479
5159,-2.127,5.277,12.166,29.472,0.480,21.830
5169,-1.934,4.185,12.522,18.648,-7.856,23.815
5179,-1.310,3.480,11.733,18.113,-15.657,24.303
5189,-1.248,3.340,11.940,24.633,-18.757,23.555
5199,-0.952,4.899,10.672,31.106,-31.749,26.685
5209,0.181,5.088,9.443,21.243,-35.154,29.632
5219,0.122,5.020,8.619,10.999,-34.909,28.151
5229,1.028,5.245,7.134,-6.223,-31.535,25.815
5239,1.704,4.456,6.305,-24.620,-19.322,24.960
5249,1.536,2.916,6.076,-31.978,-7.245,25.540
5259,1.629,1.597,5.468,-31.719,6.144,21.540
5269,-0.169,0.578,7.618,-28.055,19.732,13.998
5279,-0.406,0.550,7.913,-16.070,22.923,7.036
5289,-1.104,0.459,8.787,-5.307,22.480,1.830
5299,-2.030,-0.334,11.044,16.755,23.076,1.891
5309,-1.738,0.383,10.655,48.877,9.014,-1.743
5319,-1.939,2.412,11.861,67.610,5.549,-4.765
5329,-2.118,4.305,11.931,67.075,-5.489,-6.185
5339,-2.329,4.762,12.552,57.900,-16.054,-7.422
5349,-1.509,4.836,11.170,47.228,-30.329,-8.735
5359,-1.461,4.518,11.293,45.304,-34.467,-7.697
5369,-1.501,5.361,10.839,48.907,-43.428,-4.033
5379,-1.015,6.436,10.291,45.030,-51.001,3.021
5389,0.016,7.049,8.360,28.923,-56.345,10.502
5399,0.223,6.646,8.064,10.251,-50.497,18.196
5409,0.989,6.487,6.152,-13.856,-43.551,21.464
5419,1.946,5.308,5.176,-37.093,-25.642,23.219
5429,2.379,3.804,4.254,-47.429,-1.505,24.868
5439,1.278,2.448,4.767,-53.734,14.877,23.158
5449,0.959,0.970,5.241,-55.352,28.587,17.021
5459,0.093,-0.940,6.697,-47.704,36.221,6.548
5469,-0.284,-1.070,6.989,-25.902,39.534,-5.697
5479,-2.060,-0.012,10.304,-0.268,39.564,-10.430
5489,-2.732,1.540,11.459,27.671,14.236,-6.674
5499,-1.095,2.721,10.600,36.984,4.129,-6.246
5509,-1.139,3.520,10.864,36.877,-0.863,-8.185
5519,-0.542,4.281,10.467,27.579,-4.008,-13.132
5529,-0.622,4.516,10.596,21.442,-3.459,-15.285
5539,-0.296,4.833,10.200,21.411,-3.383,-14.552
5549,-0.953,6.500,10.219,27.930,-11.886,-8.460
5559,-0.058,7.462,9.814,18.984,-14.238,0.227
5569,-0.606,7.539,10.060,13.213,-19.612,12.670
5579,0.932,8.373,7.723,-7.734,-26.405,20.242
5589,1.830,7.884,6.542,-43.566,-23.505,25.158
5599,2.714,6.013,5.252,-71.246,-9.169,30.609
5609,2.427,3.646,5.593,-80.162,5.778,34.364
5619,2.074,1.895,5.736,-77.383,15.045,35.632
5628,1.957,0.059,5.821,-73.902,29.686,28.960
5639,1.302,-1.464,7.065,-63.444,42.572,15.922
5649,0.580,-2.304,8.445,-41.215,51.809,4.731
5659,-0.387,-1.913,9.921,-9.734,50.389,-6.888
5669,-0.999,-0.178,11.348,16.984,47.870,-14.078
5679,-2.074,1.226,12.599,35.793,32.099,-17.346
5689,-1.958,2.800,12.960,38.098,19.763,-25.269
5699,-1.890,4.049,12.625,29.900,2.083,-31.834
5709,-1.459,4.359,12.448,25.915,-8.757,-33.208
5719,-1.582,5.031,11.955,30.052,-21.642,-30.872
5729,-1.580,5.683,11.640,32.785,-29.856,-25.086
5739,-1.296,6.388,10.808,32.388,-40.604,-17.804
5749,-0.880,7.141,10.117,29.503,-51.413,-7.804
5759,-0.008,7.859,8.079,10.342,-60.619,-0.368
5769,1.308,7.027,6.691,-20.696,-47.688,3.845
5779,2.034,6.164,4.794,-45.001,-35.505,1.983
5789,1.660,4.914,5.398,-55.108,-13.657,6.044
5799,1.941,3.921,4.359,-62.650,5.137,5.815
5809,1.011,2.697,5.397,-70.727,22.572,5.051
5819,0.076,0.692,6.388,-69.780,33.228,5.403
5829,-0.835,-1.259,7.317,-55.490,35.289,2.380
5839,-1.206,-2.599,9.205,-30.772,46.602,-2.445
5849,-2.748,-2.915,11.171,7.655,30.648,-6.078
5859,-2.428,-1.197,11.535,44.007,18.663,-10.048
5869,-2.082,1.094,11.357,55.488,8.526,-15.895
5879,-2.400,2.203,11.928,55.075,0.282,-18.552
5889,-1.638,2.974,10.985,47.381,-7.779,-24.643
5899,-1.266,3.461,10.976,36.404,-9.764,-31.941
5909,-1.896,4.379,11.251,37.823,-18.726,-30.918
5919,-1.260,5.205,10.948,39.732,-24.757,-25.544
5929,-0.847,6.649,9.283,34.419,-37.627,-19.529
5939,0.045,7.966,8.019,15.549,-34.406,-10.521
5949,0.500,8.471,7.101,-12.574,-29.398,-0.078
5959,1.523,7.494,5.862,-44.253,-15.657,7.845
5969,1.649,5.316,5.771,-60.910,4.892,13.311
5979,0.823,3.824,6.606,-61.765,19.152,16.380
5989,0.683,2.874,6.660,-61.749,25.488,18.945
5999,0.725,0.741,6.453,-61.872,31.946,17.555
6009,0.561,-1.931,7.441,-47.459,45.137,10.700
6019,-0.774,-3.431,9.209,-12.635,47.946,0.166
6049,-2.616,2.984,12.276,50.663,14.572,-21.208
6059,-1.454,3.295,11.340,38.358,2.465,-22.002
6069,-0.950,3.062,11.039,31.884,-1.764,-23.208
6079,-0.924,3.406,11.189,34.541,0.404,-23.590
6089,-1.632,5.267,11.146,42.938,-9.092,-17.590
6099,-1.050,7.111,10.360,34.846,-19.047,-8.582
6109,-0.424,7.380,9.403,16.266,-20.772,3.448
6119,-0.513,7.392,8.998,-4.116,-19.489,10.792
6129,-0.022,7.538,7.542,-33.933,-18.085,15.571
6139,0.604,6.335,6.830,-63.490,-7.963,20.227
6149,-0.236,4.447,7.575,-75.948,-0.054,24.792
6159,0.432,2.644,6.390,-81.917,3.732,25.738
6169,1.396,0.241,5.367,-85.673,15.824,20.059
6179,1.349,-2.660,5.475,-74.833,36.923,8.639
6189,0.438,-4.451,7.126,-38.253,59.518,-0.246
6199,-0.731,-3.731,8.982,10.205,68.679,-10.796
6209,-2.160,-0.867,11.277,47.060,67.290,-16.399
6219,-3.188,2.035,12.278,62.694,43.824,-14.201
6229,-2.797,3.245,12.374,53.167,23.732,-13.972
6239,-1.878,3.395,11.508,33.167,8.190,-22.979
6249,-1.734,3.297,11.861,26.633,2.740,-28.888
6259,-1.663,4.201,11.471,29.717,-5.947,-30.613
6269,-1.610,5.825,10.982,30.755,-12.970,-26.369
6279,-1.255,7.117,10.591,25.594,-17.596,-15.254
6289,-1.116,8.019,9.784,14.037,-24.238,-0.048
6299,-0.062,8.482,7.704,-9.932,-25.398,11.784
6309,0.501,7.385,7.122,-40.742,-8.802,20.471
6319,0.803,5.995,6.227,-63.826,8.709,22.273
6329,0.165,5.109,6.422,-81.582,15.778,19.738
6339,0.293,3.729,6.510,-102.024,22.144,21.174
6349,-0.184,0.635,6.949,-108.055,22.236,22.853
6359,-0.218,-2.872,7.378,-85.627,31.152,24.380
6369,0.181,-4.604,7.467,-43.337,40.114,16.441
6379,-1.374,-4.427,10.142,8.419,51.534,4.410
6389,-2.303,-2.313,11.435,52.297,46.190,-0.964
6399,-3.124,0.182,12.514,71.381,32.663,-6.445
6408,-3.333,2.706,12.804,61.350,15.442,-16.521
6419,-2.998,3.654,12.206,42.739,-2.253,-22.231
6429,-1.905,3.299,11.498,29.396,-10.619,-25.010
6439,-1.782,3.645,11.635,29.549,-15.673,-26.659
6449,-2.121,4.919,11.310,33.869,-26.253,-19.834
6459,-2.361,6.285,10.995,35.823,-38.161,-5.972
6469,-1.249,7.252,9.233,23.533,-44.406,6.716
6479,-0.505,7.523,7.584,-2.894,-43.367,14.242
6489,0.031,6.632,7.280,-37.383,-25.184,20.456
6499,0.447,5.435,6.369,-63.322,-13.077,20.899
6509,0.283,3.285,6.751,-77.139,3.915,25.586
6519,-0.113,1.122,6.682,-75.917,13.228,28.929
6529,0.269,-0.766,6.370,-68.788,20.908,24.120
6539,0.549,-2.680,6.476,-54.650,34.114,12.471
6549,-1.025,-4.094,8.281,-23.917,45.335,-1.529
6559,-2.149,-3.691,10.291,18.633,45.335,-13.056
6569,-2.826,-0.989,11.220,52.831,32.786,-20.964
6578,-3.750,2.022,12.616,61.579,16.053,-21.911
6589,-3.244,3.071,12.064,55.335,-5.489,-19.575
6599,-2.248,2.944,11.859,44.923,-12.634,-24.246
6609,-1.722,3.615,11.116,41.778,-18.207,-26.888
6619,-1.838,4.814,11.423,43.182,-17.642,-21.651
6629,-1.812,6.768,10.152,40.648,-26.528,-10.964
6639,-1.277,7.383,10.001,26.419,-26.009,4.502
6649,-0.098,6.929,7.913,5.900,-22.283,16.731
6659,-0.470,6.256,8.051,-10.803,-16.222,22.517
6669,0.238,6.364,6.589,-34.879,-9.306,23.754
6679,0.227,5.198,6.722,-60.742,1.946,26.578
6689,-0.309,3.332,6.692,-71.979,10.404,31.357
6699,-0.426,1.686,6.646,-75.551,17.076,31.082
6709,-0.230,-0.365,6.726,-75.261,24.373,25.250
6719,-0.490,-3.048,7.305,-59.108,33.473,18.090
6729,-0.476,-4.136,7.770,-27.261,43.763,5.509
6739,-1.805,-3.432,10.168,11.686,48.679,-7.910
6749,-2.790,-1.389,11.486,47.106,41.488,-14.842
6759,-2.963,0.893,11.816,58.541,27.121,-20.643
6769,-3.205,2.291,12.395,55.808,13.167,-25.025
6779,-2.566,3.482,11.739,47.533,-1.718,-28.537
6789,-2.098,4.350,11.457,37.457,-9.184,-30.170
6798,-1.647,5.096,11.027,29.213,-11.169,-25.926
6809,-2.134,6.050,10.540,28.281,-20.253,-14.964
6819,-1.289,6.565,9.689,18.159,-24.619,-1.132
6829,-1.456,6.637,9.607,6.037,-25.413,9.128
6839,-0.950,7.152,8.214,-14.696,-26.604,18.044
6849,-0.142,6.686,6.765,-46.986,-20.299,22.410
6859,0.189,5.036,6.589,-75.291,-4.054,23.967
6869,-0.521,3.066,7.204,-88.208,7.534,23.097
6879,-0.928,1.522,7.384,-94.696,10.648,20.044
6889,-0.635,-0.559,6.958,-98.055,13.686,13.952
6899,-0.269,-3.264,7.299,-86.009,24.862,5.815
6909,-1.339,-5.399,9.133,-47.337,33.854,-6.262
6919,-2.238,-5.343,10.655,8.068,31.259,-16.292
6929,-2.225,-3.309,11.173,54.053,22.847,-26.521
6939,-2.996,-0.604,12.102,84.007,12.450,-32.369
6949,-2.622,2.265,11.873,86.648,-0.314,-37.422
6958,-2.267,3.991,11.233,71.457,-11.932,-40.292
6969,-1.945,4.553,11.128,50.602,-16.863,-40.781
6979,-2.080,4.964,11.179,41.259,-21.306,-37.315
6989,-2.024,6.445,10.630,36.098,-28.131,-25.819
6999,-2.127,7.434,10.312,32.663,-31.398,-3.483
7009,-1.449,7.748,9.203,21.884,-38.573,19.006
7019,-0.918,7.585,8.209,4.571,-38.421,34.426
7049,0.184,3.084,6.409,-75.582,-16.711,46.349
7059,0.236,0.904,6.688,-73.643,-8.299,48.227
7069,0.345,-0.916,6.689,-58.910,-0.695,48.258
7079,0.064,-2.689,6.982,-40.833,8.648,43.723
7089,-0.010,-4.124,6.721,-21.322,20.098,28.471
7099,-1.103,-4.051,9.478,-4.513,38.602,2.654
7109,-3.478,-3.299,11.770,30.419,26.862,-8.659
7119,-2.783,-1.102,11.567,59.167,15.671,-14.384
7129,-2.594,1.009,12.030,66.465,5.534,-22.704
7139,-2.322,2.224,11.882,64.495,-3.337,-28.460
7149,-1.752,3.210,10.949,65.686,-12.100,-29.559
7159,-0.998,4.639,10.250,62.114,-11.398,-28.384
7169,-1.473,6.190,10.152,58.098,-7.871,-19.880
7179,-1.528,7.063,10.593,49.014,-5.199,-2.170
7189,-1.052,6.997,8.421,51.213,-17.062,19.586
7199,-0.568,6.593,9.078,48.816,-3.581,39.632
7209,-1.993,6.266,8.195,19.091,-7.810,30.655
7219,0.149,7.559,6.545,-13.337,-7.031,26.273
7229,0.507,6.889,5.929,-61.780,5.595,25.861
7239,0.076,3.476,6.625,-88.345,19.030,32.655
7249,-0.345,0.526,7.177,-89.017,23.640,30.655
7259,-0.294,-0.935,7.073,-81.124,29.030,21.677
7269,-0.427,-1.994,6.972,-79.368,34.099,6.609
7279,-1.468,-4.043,9.373,-60.665,43.870,-6.735
7289,-2.367,-4.861,11.342,-8.238,40.083,-14.918
7299,-2.995,-2.613,12.095,42.739,28.190,-23.880
7309,-3.499,1.076,12.528,68.083,14.908,-27.849
7319,-2.887,3.378,11.572,70.724,-1.886,-20.475
7329,-1.696,4.158,11.148,53.259,-4.909,-19.010
7339,-1.422,4.550,10.479,43.976,-8.696,-17.666
7349,-1.751,5.349,11.168,40.678,-7.550,-10.933
7359,-1.996,6.804,10.473,36.984,-17.260,2.090
7369,-1.765,7.308,10.293,16.510,-22.131,13.433
7379,-2.055,7.177,9.962,-2.085,-28.238,23.204
7389,-1.610,7.275,8.573,-28.391,-35.062,26.273
7399,-1.332,6.524,8.064,-66.146,-32.864,22.426
7409,-0.584,4.651,7.402,-91.368,-30.177,23.082
7419,-0.089,2.199,7.002,-99.490,-24.039,23.906
7429,0.266,-0.056,6.455,-95.750,-17.276,20.395
7439,0.975,-2.036,5.848,-88.681,-8.726,9.922
7449,0.949,-4.687,6.398,-63.963,10.831,0.059
7459,-0.294,-5.604,8.456,-15.887,31.656,-13.376
7469,-1.460,-3.557,9.707,36.755,33.518,-23.162
7479,-2.665,-0.342,11.624,66.450,32.419,-24.964
7488,-2.743,1.966,11.550,72.892,14.221,-22.384
7499,-2.410,2.824,11.907,61.610,2.969,-27.773
7509,-1.644,3.297,11.322,51.885,-5.321,-31.529
7519,-1.661,4.168,11.494,49.411,-11.489,-31.880
7529,-2.024,6.385,11.047,44.404,-18.833,-22.995
7539,-2.190,7.903,11.012,26.709,-30.115,-6.582
7549,-1.580,7.930,10.069,1.365,-41.322,8.807
7559,-1.082,7.114,9.474,-19.627,-42.451,19.113
7569,-0.287,7.277,7.390,-40.711,-45.810,24.990
7579,0.861,5.850,6.125,-69.108,-30.146,29.800
7589,0.348,3.445,6.700,-80.360,-13.001,32.395
7599,0.234,1.956,6.466,-81.307,-2.390,30.013
7609,0.423,0.267,6.496,-83.658,8.785,25.723
7619,0.392,-2.106,6.785,-78.101,19.060,18.548
7629,-0.365,-4.222,8.148,-60.345,26.465,3.632
7639,-1.168,-4.774,8.900,-22.940,26.465,-8.918
7649,-2.625,-3.201,11.399,16.129,23.534,-21.071
7659,-2.340,-1.501,11.416,45.839,9.243,-20.811
7669,-2.212,-0.570,11.847,60.694,-3.031,-27.330
7679,-1.739,1.206,11.621,66.892,-11.199,-35.437
7689,-1.352,2.749,11.150,70.434,-17.184,-36.292
7699,-0.903,4.020,10.539,63.427,-17.810,-36.430
7709,-1.366,4.967,11.266,55.854,-18.573,-33.911
7719,-1.469,6.066,10.949,45.900,-25.108,-23.254
7729,-1.926,7.076,10.723,34.648,-36.406,-11.514
7739,-1.347,7.909,9.331,13.396,-41.291,4.685
7749,-0.987,7.758,8.902,-16.681,-40.375,15.952
7759,0.095,6.925,7.002,-46.284,-36.314,27.021
7769,0.769,4.605,6.486,-70.238,-20.787,31.036
7779,0.724,2.404,6.184,-76.360,-7.108,31.601
7789,0.868,0.698,6.048,-76.986,5.915,29.555
7799,0.702,-1.469,6.229,-75.062,18.938,22.349
7809,0.084,-4.083,7.213,-58.833,30.999,11.708
7819,-0.816,-5.248,9.212,-25.505,42.343,-4.521
7829,-2.252,-4.303,11.266,18.526,35.106,-19.468
7839,-2.798,-1.848,12.118,52.068,18.786,-25.773
7849,-2.689,0.827,12.595,58.129,3.274,-31.605
7859,-2.151,1.976,12.005,54.251,-16.680,-34.460
7869,-1.073,2.425,11.594,47.442,-20.146,-37.819
7879,-0.878,3.338,10.686,49.106,-22.711,-37.224
7889,-0.913,4.684,10.996,48.877,-20.833,-31.880
7899,-1.706,6.411,11.067,51.411,-27.474,-16.384
7909,-1.084,7.521,10.365,29.915,-34.879,-2.338
7919,-0.552,7.425,8.768,7.701,-40.940,10.120
7929,-0.296,6.638,8.991,-20.696,-33.780,15.219
7939,0.210,6.552,7.395,-42.131,-28.238,21.647
7948,0.436,5.155,7.283,-65.978,-17.856,28.105
7959,0.096,3.031,7.306,-76.864,-10.100,33.448
7969,0.370,0.863,6.860,-80.620,-3.779,33.387
7979,0.959,-1.781,6.411,-75.368,6.862,28.716
7989,1.096,-4.418,6.773,-57.337,21.045,15.754
7999,0.754,-5.801,7.830,-23.322,36.938,-2.720
8009,-1.097,-5.082,10.215,24.617,41.106,-18.659
8019,-2.078,-2.073,11.833,58.587,36.725,-28.475
8049,-1.788,3.777,11.985,46.984,-22.818,-39.361
8059,-1.383,4.444,12.121,38.541,-29.260,-36.445
8069,-1.119,5.747,11.210,38.480,-35.612,-22.414
8079,-0.891,6.709,10.505,28.327,-40.894,-8.567
8089,-0.609,6.923,9.705,15.335,-42.757,6.028
8099,0.369,6.406,8.601,-3.810,-35.825,16.853
8109,-1.613,8.407,9.105,-25.887,-39.963,19.708
8119,2.541,5.959,4.896,-64.467,-27.016,36.914
8129,1.384,0.649,7.166,-66.818,4.144,36.929
8138,-0.471,-0.314,8.263,-39.536,12.205,36.120
8149,-0.172,0.541,8.257,-31.154,13.030,34.135
8159,0.040,0.223,7.930,-31.810,16.144,32.471
8169,-0.041,-1.639,8.579,-33.062,22.450,22.609
8179,-0.375,-2.527,9.026,-17.108,24.511,11.677
8189,-0.574,-1.563,9.134,-4.085,26.862,-0.536
8199,-1.009,-0.958,9.658,2.953,21.244,-10.445
8209,-0.839,-0.004,10.016,12.739,18.923,-15.987
8219,-0.994,0.909,10.150,20.541,14.297,-17.575
8229,-1.038,1.638,10.461,26.190,11.732,-17.269
8239,-1.198,2.860,11.080,30.404,8.831,-15.010
8249,-0.907,3.885,10.516,26.907,7.946,-8.139
8259,-1.052,3.838,11.022,24.113,9.228,1.586
8269,-1.096,3.725,10.983,29.243,7.686,12.227
8279,-1.144,4.180,11.542,26.709,3.121,16.044
8288,5.218,7.308,11.313,64.068,-47.749,114.075
8299,5.844,2.546,4.917,-42.146,-7.459,14.777
8309,-2.367,-0.382,11.772,-27.123,11.427,-10.033
8319,-1.532,3.770,10.825,17.518,-13.520,17.296
8329,-0.527,5.190,8.769,-1.459,-23.825,36.426
8339,0.296,3.108,8.036,-26.497,-23.627,35.830
8349,1.339,2.344,6.439,-46.299,-16.482,20.013
8359,1.940,0.846,6.518,-56.467,1.915,12.731
8369,0.466,-0.551,7.387,-46.482,10.618,8.792
8379,0.558,-0.278,6.886,-32.711,16.083,5.708
8389,0.189,-0.038,8.069,-31.383,27.030,-3.361
8399,-0.405,-0.742,8.417,-25.413,26.572,-8.598
8409,-1.089,-1.766,9.799,-8.284,26.786,-12.643
8419,-2.020,-1.433,11.618,25.747,21.946,-13.804
8428,-1.918,0.484,11.574,49.121,10.297,-16.109
8439,-1.845,2.327,12.133,48.358,0.144,-20.796
8449,-1.346,3.026,11.378,43.381,-10.787,-17.391
8459,-0.830,2.753,11.433,38.999,-10.833,-15.849
8469,-0.585,3.314,10.749,42.724,-14.634,-11.605
8479,6.321,3.684,9.880,113.579,-37.780,28.822
8489,6.029,12.304,4.856,20.190,-11.306,-16.155
8499,-1.653,4.662,9.682,-36.223,7.488,3.967
8509,-0.871,2.436,10.255,-9.215,-13.001,12.196
8519,-0.181,4.681,9.348,-0.390,-10.451,21.754
8529,-0.550,5.685,8.449,-11.566,-15.520,34.777
8539,1.106,4.452,6.352,-42.131,-8.650,34.029
8549,1.454,1.682,6.667,-60.055,9.274,29.632
8559,0.241,-0.274,7.709,-54.635,18.007,24.792
8569,-0.137,-1.518,7.184,-39.612,19.121,23.418
8579,0.822,-2.875,7.121,-29.200,28.312,11.021
8589,0.543,-3.658,7.875,-11.062,40.633,-8.750
8599,-2.007,-3.245,10.651,23.564,40.954,-20.109
8609,-1.349,-1.519,10.468,52.755,35.641,-23.697
8619,-1.892,0.631,11.192,64.480,31.106,-32.674
8629,-1.924,2.526,11.877,63.518,23.289,-35.147
8639,-2.256,3.968,12.003,60.511,9.961,-32.414
8649,-1.740,5.149,11.871,48.327,-1.810,-26.399
8659,-1.775,5.605,11.504,37.075,-14.421,-16.475
8669,-0.572,5.993,11.250,40.251,-19.841,-15.575
8679,-0.959,7.530,10.217,21.457,-28.741,4.196
8689,0.710,5.428,8.675,5.060,-29.902,16.303
8699,0.830,4.963,8.258,4.556,-18.390,18.685
8709,0.800,6.440,7.532,-8.864,-9.276,23.830
8719,0.151,6.310,7.490,-34.604,-6.054,29.189
8729,0.605,4.518,6.769,-61.551,-1.642,30.899
8739,0.247,1.779,7.079,-72.864,7.900,26.853
8749,-0.708,0.569,8.480,-76.925,12.327,12.090
8759,-0.314,-1.162,7.697,-67.566,8.877,13.418
8769,0.212,-4.282,8.387,-48.665,22.221,5.799
8779,-0.593,-5.728,9.199,-12.039,32.007,-13.452
8789,-1.819,-3.966,11.359,26.007,38.434,-31.987
8799,-2.968,-0.377,12.763,52.266,28.755,-31.788
8809,-3.370,2.203,13.211,60.236,4.755,-24.552
8819,-2.273,3.346,12.298,50.052,-10.772,-23.498
8829,-1.967,3.933,12.079,37.136,-24.207,-26.964
8839,-0.670,4.039,10.956,30.358,-32.207,-23.865
8849,-0.730,4.853,10.899,39.640,-34.115,-16.201
8859,-0.379,6.990,9.846,37.930,-40.024,-3.727
8869,-0.172,7.742,9.192,24.388,-42.741,16.807
8879,0.333,7.141,8.282,4.159,-41.199,34.227
8889,0.672,6.104,7.429,-15.093,-35.948,45.158
8899,1.193,5.132,6.484,-36.955,-27.459,51.372
8909,1.171,3.175,6.221,-50.864,-10.986,52.029
8919,1.005,2.216,6.087,-59.062,1.671,40.975
8929,1.461,1.458,5.595,-77.078,15.976,27.280
8939,0.822,-1.065,6.866,-83.551,28.877,19.586
8949,0.026,-3.671,7.420,-64.345,35.152,9.357
8959,-0.016,-4.976,8.215,-31.413,49.747,-6.811
8969,-0.523,-3.997,8.853,8.694,64.053,-22.399
8979,-2.366,-1.555,12.104,42.755,67.228,-30.918
8989,-3.433,1.473,12.948,60.999,40.725,-31.850
8999,-3.215,3.593,13.416,61.152,17.488,-29.788
9009,-2.277,4.383,12.428,47.549,-7.581,-28.124
9019,-1.594,4.310,11.711,37.625,-17.276,-27.559
9049,-0.739,6.097,10.473,40.816,-25.260,-2.262
9059,-1.407,6.965,10.619,38.572,-35.093,11.647
9069,-0.659,7.077,9.023,20.877,-44.360,25.418
9079,-0.218,5.893,8.652,-1.627,-44.848,35.219
9088,0.197,4.696,7.575,-20.513,-47.383,39.189
9099,1.729,3.217,6.135,-46.223,-33.505,34.716
9108,2.325,1.110,4.788,-61.108,-17.306,24.380
9119,2.457,-1.215,5.292,-69.948,12.068,8.059
9129,1.303,-3.560,6.828,-59.582,27.427,-5.804
9139,0.737,-4.617,6.907,-33.673,39.106,-19.468
9149,-0.209,-4.005,8.958,-8.787,59.244,-34.460
9159,-2.629,-2.623,11.803,24.984,54.328,-41.224
9169,-3.408,-0.620,13.382,50.770,37.289,-41.651
9179,-3.582,1.702,13.840,63.656,12.022,-40.720
9189,-3.516,3.502,14.029,59.457,-9.047,-41.056
9199,-2.451,4.010,12.556,45.289,-28.207,-42.506
9209,-1.568,4.002,12.240,34.526,-32.238,-45.926
9219,-1.054,4.452,11.311,35.671,-38.589,-40.521
9229,-1.309,5.251,11.274,47.885,-43.612,-23.834
9239,-1.144,6.643,10.158,54.083,-54.390,-4.048
9249,-0.617,7.360,9.443,45.900,-61.352,14.731
9259,0.220,7.198,7.775,27.808,-64.406,30.151
9269,0.896,6.535,6.747,-1.535,-56.131,35.128
9279,2.142,5.744,3.981,-37.795,-47.902,30.990
9289,2.758,3.223,4.709,-74.452,-9.413,21.464
9299,3.405,1.259,3.321,-89.108,15.045,10.731
9309,1.856,-0.743,6.306,-85.200,40.984,2.028
9319,0.640,-2.102,6.787,-60.177,44.557,-0.735
9329,0.453,-2.918,7.002,-35.047,50.557,-7.529
9339,-0.342,-3.366,8.651,-4.986,62.251,-18.460
9349,-2.028,-2.200,10.818,33.686,59.702,-25.956
9359,-2.270,0.737,11.955,60.327,51.030,-26.613
9369,-3.336,3.551,13.050,68.877,29.137,-20.536
9379,-2.570,5.307,12.242,57.198,9.808,-12.353
9389,-1.735,5.404,11.606,39.793,-2.405,-5.758
9399,-0.955,5.198,11.306,27.365,-3.108,-4.002
9409,-1.824,5.911,11.944,29.152,-10.039,4.425
9419,-1.301,6.974,10.712,26.129,-20.360,19.967
9429,-0.576,7.052,9.701,16.113,-23.612,34.517
9439,0.321,5.981,8.954,-1.505,-17.917,42.563
9449,-0.509,5.376,8.817,-7.749,-20.772,47.510
9459,1.332,5.046,6.000,-29.352,-18.696,48.273
9469,1.886,2.710,5.826,-56.528,7.915,39.433
9479,1.058,0.776,5.865,-61.475,17.946,27.601
9489,1.092,-0.510,6.164,-62.375,32.236,15.525
9499,0.218,-2.182,6.864,-58.925,40.786,4.074
9509,-0.750,-3.722,7.980,-46.421,47.885,-8.216
9519,-0.922,-3.901,8.937,-21.093,56.908,-19.285
9529,-2.531,-2.736,11.481,15.900,49.870,-25.269
9539,-3.549,-0.670,12.909,48.205,29.106,-27.407
9549,-2.935,1.955,12.492,62.297,6.923,-29.391
9559,-2.339,4.185,11.860,60.511,-8.772,-30.338
9569,-0.913,5.332,11.031,41.472,-13.123,-31.727
9579,-1.199,5.304,11.351,31.426,-14.436,-27.712
9589,-0.671,5.607,10.883,25.488,-17.001,-20.506
9599,-1.563,6.280,10.984,31.686,-25.001,-4.460
9609,-0.861,6.363,10.689,22.923,-26.512,9.922
9619,-1.364,5.913,10.528,18.587,-35.764,20.532
9629,-0.396,5.937,8.888,9.991,-39.520,29.830
9639,0.088,5.520,7.974,-8.329,-37.749,33.616
9649,1.510,4.615,6.167,-34.330,-27.856,30.990
9659,1.797,2.646,6.047,-51.765,-10.192,21.967
9669,2.185,1.605,5.541,-56.803,6.770,10.410
9679,1.353,0.242,6.708,-57.047,23.244,4.716
9689,-0.228,-1.938,7.730,-45.001,30.328,1.341
9699,-0.278,-2.665,7.621,-27.352,36.648,-11.468
9709,-1.778,-2.820,11.083,-6.482,42.205,-22.918
9719,-3.107,-2.113,12.841,28.205,22.740,-27.025
9728,-3.373,-0.097,13.200,59.991,-1.825,-27.269
9739,-2.097,2.743,12.234,67.778,-19.215,-29.453
9749,-1.563,4.240,11.925,58.159,-30.390,-31.758
9759,-0.465,4.955,10.746,43.900,-33.489,-32.598
9769,-0.210,5.556,10.056,36.984,-31.413,-26.613
9779,-0.090,6.031,10.133,32.068,-27.062,-14.323
9789,-1.180,6.820,10.758,34.572,-30.680,2.181
9799,-1.193,7.264,9.737,27.396,-35.764,15.036
9809,-0.056,7.286,8.208,10.770,-40.803,23.555
9819,2.246,3.804,4.098,-15.459,11.564,4.227
9829,1.402,4.536,7.091,-32.879,36.740,-13.361
9839,0.736,4.593,6.545,-49.841,26.221,1.830
9849,0.738,2.846,6.307,-63.093,16.877,19.845
9859,0.205,0.321,6.704,-62.223,10.434,24.914
9869,0.077,-1.532,6.484,-46.559,9.915,17.479
9879,-0.798,-2.365,8.459,-32.772,14.877,2.074
9889,-1.443,-2.351,9.522,-12.833,15.656,-16.170
9899,-2.734,-2.031,12.122,11.625,7.824,-28.674
9909,-1.997,0.237,11.530,36.907,-3.123,-33.162
9919,-2.184,2.585,11.697,49.549,-0.986,-26.201
9929,-1.394,3.609,10.651,49.259,6.587,-25.453
9939,-1.168,4.148,10.134,45.091,22.740,-32.155
9949,-0.001,4.502,9.582,40.923,31.870,-33.178
9959,0.088,4.207,9.823,44.266,35.412,-36.903
9969,-0.365,4.938,9.415,48.449,29.335,-42.430
9979,-1.643,5.922,9.835,48.969,23.121,-38.308
9989,-0.828,5.121,8.918,35.045,7.045,-33.239
9999,-1.125,3.692,9.053,28.297,-7.795,-40.017
10009,-0.605,4.802,7.821,18.144,-26.955,-43.285
10019,-1.261,7.204,7.136,-22.100,-36.451,-9.895
10049,-0.408,0.723,8.206,-56.849,-31.566,-41.071
10059,-0.611,-1.508,8.842,-47.017,-32.161,-51.147
10069,-0.781,-0.278,9.843,-23.994,-17.383,-62.033
10079,-0.866,1.429,9.854,3.900,-2.344,-31.086
10089,-1.208,2.041,10.559,19.823,11.671,-10.155
10099,-1.131,3.007,10.821,28.434,22.877,1.509
10109,-1.499,4.099,11.663,38.816,27.030,5.265
10119,-0.694,2.579,11.197,41.656,25.702,-7.514
10129,-1.068,2.178,11.053,63.442,12.312,-28.827
10139,-0.819,4.057,9.595,67.701,2.480,-43.147
10149,-1.007,4.158,9.968,74.083,-3.978,-53.605
10159,-0.335,4.268,8.839,77.701,-6.192,-64.140
10169,-0.363,4.530,9.042,79.213,-7.612,-76.430
10179,-0.004,6.341,7.353,65.289,-4.283,-75.773
10189,-0.210,7.053,6.640,37.610,1.534,-65.132
10199,-0.831,5.261,6.303,-18.055,4.984,-72.659
10209,-0.351,3.903,7.669,-33.398,4.450,-64.323
10219,-0.794,3.291,7.289,-42.726,2.969,-52.430
10229,-1.364,1.893,8.135,-45.337,2.175,-40.964
10239,-1.457,1.560,8.445,-50.055,-0.894,-32.979
10249,-1.481,0.702,9.204,-45.169,0.404,-20.949
10259,-2.133,0.518,10.631,-22.253,1.503,-11.285
10269,-2.200,2.093,11.088,-6.070,4.251,-2.659
10279,-2.317,2.449,11.650,15.045,8.740,5.708
10289,-1.545,3.087,11.421,26.144,8.847,0.334
10299,-1.412,3.597,10.910,36.510,3.350,-8.475
10309,-1.352,4.173,10.626,34.037,-0.879,-18.124
10319,-1.389,4.794,9.709,38.159,-4.833,-19.605
10329,-1.173,4.253,9.369,39.442,-4.039,-24.979
10339,-0.533,5.349,8.113,44.419,2.755,-14.430
10349,-0.643,4.788,7.863,42.801,8.129,-9.178
10359,-0.906,5.133,7.848,34.877,12.679,-9.926
10369,-0.928,5.017,7.032,18.465,12.511,-7.590
10379,-1.047,5.051,6.352,2.709,7.045,-11.040
10389,-1.638,3.646,8.038,-23.032,1.824,-24.964
10399,-1.034,4.701,6.536,-36.055,-7.596,-21.101
10409,-1.587,2.951,7.670,-54.971,-14.894,-20.613
10419,-1.426,2.570,7.775,-60.757,-22.619,-21.758
10429,-1.589,1.583,8.440,-62.055,-19.841,-17.269
10439,-1.474,1.573,8.885,-53.902,-13.779,-10.078
10449,-2.816,0.463,10.563,-22.665,-7.245,-1.819
10459,-2.204,1.399,11.130,7.411,-2.466,0.929
10469,-1.673,2.530,10.686,32.755,4.007,4.135
10479,-1.884,2.969,11.227,49.335,9.839,-0.033
10489,-1.361,4.125,10.010,55.854,10.129,-7.208
10498,-1.866,3.927,9.699,46.205,7.625,-20.888
10509,-1.645,5.079,9.337,49.793,4.373,-16.765
10519,-1.146,4.821,8.985,34.984,1.030,-14.262
10529,-0.799,5.599,7.830,34.617,-3.779,-8.216
10539,-1.097,5.838,7.733,20.587,-1.001,-2.689
10549,-1.437,5.938,7.802,10.984,0.190,6.410
10559,-0.860,5.871,6.944,-18.436,1.350,9.403
10569,-0.851,5.083,7.042,-44.192,1.472,10.227
10579,-1.183,3.675,7.966,-61.414,-2.405,11.830
10589,-1.502,2.331,8.745,-67.383,-10.573,14.761
10599,-0.959,1.212,8.980,-76.391,-20.497,13.082
10609,-0.191,0.771,8.808,-86.330,-27.749,10.868
10619,-1.115,-0.375,10.865,-75.612,-27.474,15.464
10629,-1.698,-0.106,11.912,-48.665,-23.932,20.639
10639,-2.098,1.383,12.015,-22.726,-20.909,23.006
10649,-2.481,2.057,12.686,3.411,-18.497,23.861
10659,-1.732,3.164,11.532,21.946,-16.634,23.769
10669,-1.303,3.741,11.158,28.419,-14.787,20.105
10679,-0.805,4.423,9.945,27.732,-13.154,19.311
10689,-1.025,4.427,9.816,34.465,-10.222,22.013
10699,-0.992,5.168,8.938,35.808,-6.512,25.296
10709,-0.481,5.535,8.174,19.594,-3.703,23.280
10719,-0.951,5.762,7.693,6.052,-2.207,24.777
10729,-1.185,5.459,7.933,-11.719,-0.940,27.586
10739,-0.744,5.483,6.982,-31.841,-2.695,30.166
10749,-0.888,4.469,7.417,-49.154,-3.383,35.677
10759,-0.682,3.753,7.043,-57.765,-6.863,44.349
10769,-0.214,2.781,7.018,-75.307,-7.963,46.456
10779,-0.186,1.358,7.472,-91.292,-9.291,47.693
10789,-0.432,-0.397,8.534,-91.887,-10.008,51.754
10799,-0.600,-1.627,9.786,-72.971,-4.986,54.517
10809,0.726,-3.837,6.848,-8.619,25.671,53.433
10819,-2.134,-2.545,12.431,22.602,46.205,13.800
10829,-2.295,1.560,12.082,52.480,20.801,-8.094
10839,-2.529,4.413,12.265,51.243,1.946,-7.132
10849,-1.613,5.116,11.040,31.488,-11.001,-5.330
10859,-1.241,4.517,11.088,20.907,-17.154,-3.269
10869,-0.739,4.835,10.364,20.373,-18.634,2.410
10879,-0.951,5.740,9.805,14.174,-21.306,7.586
10889,-0.740,5.729,9.631,1.808,-21.627,14.670
10899,-0.620,5.459,9.067,-10.024,-23.718,19.235
10909,-0.501,5.200,8.213,-20.375,-25.199,23.464
10919,0.295,4.247,7.423,-35.566,-17.825,23.967
10929,0.369,3.138,7.214,-42.085,-9.230,22.487
10939,0.367,2.112,6.923,-42.223,-1.184,21.509
10949,0.482,0.970,7.085,-44.436,9.014,16.303
10959,0.325,-0.610,7.030,-41.368,15.686,8.929
10969,-0.616,-2.552,8.680,-26.803,23.320,0.105
10979,-0.731,-2.176,8.809,-1.368,29.747,-11.590
10989,-2.854,-1.307,11.750,20.862,20.572,-17.529
10999,-2.148,-0.127,11.348,36.953,7.045,-22.017
11009,-2.244,1.167,11.871,46.587,-7.428,-24.750
11019,-1.730,2.999,11.328,47.579,-15.383,-25.727
11049,-0.496,5.373,9.958,26.984,-18.497,-10.827
11059,-0.429,6.080,9.642,24.297,-17.657,-0.430
11069,-0.752,7.114,9.005,17.472,-21.230,12.212
11079,0.186,6.824,8.324,-7.123,-15.734,21.143
11089,0.481,5.998,6.714,-26.955,-12.467,24.716
11099,0.417,4.470,7.539,-43.597,1.457,25.280
11109,0.380,3.607,6.639,-51.505,8.724,23.036
11119,0.329,2.510,7.170,-57.673,17.045,20.502
11129,0.034,0.886,7.025,-55.872,22.221,17.235
11138,-0.244,-1.092,8.338,-46.635,29.076,10.319
11149,-0.210,-2.231,8.319,-22.436,32.129,1.204
11159,-1.314,-2.346,10.214,4.022,33.396,-8.735
11169,-1.971,-1.556,11.414,29.091,28.221,-15.804
11179,-2.045,0.115,11.488,47.549,16.999,-22.521
11189,-2.418,2.303,12.161,52.694,4.770,-26.521
11199,-1.469,3.764,10.998,47.564,-5.413,-25.437
11209,-1.108,4.172,11.417,39.243,-6.131,-23.239
11219,-1.104,4.692,10.666,36.281,-10.512,-17.208
11229,-1.663,5.434,11.488,37.152,-13.703,-8.643
11239,-1.254,6.893,9.971,31.030,-22.558,3.815
11249,-1.035,6.749,9.926,15.869,-23.978,15.632
11259,-0.098,6.412,7.843,-2.421,-25.398,25.006
11269,-0.117,5.534,8.482,-20.039,-14.802,28.746
11279,0.282,5.137,6.919,-36.116,-11.092,30.700
11289,0.356,3.570,7.075,-50.528,-5.001,30.029
11299,0.676,1.693,6.779,-54.345,2.648,27.509
11309,0.999,0.076,6.551,-51.673,12.098,18.349
11319,0.628,-1.240,7.381,-44.879,24.251,6.288
11329,-0.167,-2.408,7.911,-26.681,31.335,-5.071
11339,-1.665,-2.426,10.440,-2.910,33.976,-15.926
11349,-1.920,-1.308,10.500,25.152,22.007,-19.498
11359,-2.073,0.121,11.593,43.961,13.610,-23.682
11369,-1.831,1.886,11.172,56.175,3.503,-24.643
11379,-1.556,3.645,11.077,59.671,-3.581,-25.147
11389,-0.840,5.222,10.722,47.976,-4.405,-23.605
11399,-1.491,5.825,10.879,38.144,-7.092,-15.315
11409,-1.897,5.941,11.920,29.640,-9.031,-4.353
11419,-1.557,6.657,9.992,22.480,-20.009,8.044
11429,-1.157,6.195,10.152,7.533,-23.108,16.410
11439,-1.065,5.976,8.925,0.923,-29.123,26.853
11449,0.153,6.116,7.791,-16.207,-24.833,29.906
11459,0.664,5.266,6.577,-36.177,-16.253,34.029
11469,1.117,3.363,6.176,-50.513,-3.703,32.013
11479,0.768,1.707,6.555,-50.207,8.343,28.135
11488,0.460,0.611,6.956,-47.444,17.121,20.822
11499,0.360,-0.786,7.165,-42.207,24.450,11.387
11509,-0.277,-2.286,8.653,-22.757,34.770,3.738
11519,-1.356,-2.082,10.019,5.396,34.266,-4.765
11529,-1.478,-1.088,10.522,31.320,30.175,-9.193
11539,-2.541,0.328,12.268,50.312,23.915,-11.239
11549,-2.277,2.066,11.452,62.388,6.694,-10.491
11559,-1.851,3.157,11.518,61.366,-1.627,-11.987
11569,-1.484,4.395,10.949,54.877,-6.711,-14.689
11579,-1.778,5.302,11.217,46.846,-13.169,-13.254
11589,-1.594,6.008,10.521,40.098,-21.886,-4.139
11599,-1.442,6.705,10.278,31.869,-27.932,6.105
11609,-0.883,7.629,8.938,16.052,-32.726,17.647
11619,-0.017,7.021,8.101,-8.238,-29.154,26.059
11629,0.845,6.306,6.562,-30.910,-22.726,27.235
11639,0.666,4.720,7.090,-44.711,-8.237,28.441
11649,0.197,3.743,6.859,-47.307,-1.566,27.571
11659,0.087,2.861,7.048,-51.810,1.992,24.822
11669,0.309,1.289,6.804,-57.032,5.259,18.975
11679,0.639,-1.269,7.300,-50.757,10.572,9.845
11689,0.701,-2.910,8.085,-24.284,21.289,-1.269
11699,0.122,-1.970,8.651,9.945,27.870,-11.972
11709,-1.553,-0.807,10.757,36.037,24.877,-16.475
11719,-1.623,1.118,11.354,51.075,16.984,-22.216
11729,-2.262,2.977,11.885,52.404,3.091,-25.224
11739,-1.584,3.810,11.721,43.457,-4.604,-26.643
11749,-1.581,4.542,11.482,41.930,-14.176,-22.979
11759,-1.134,5.225,10.962,39.259,-21.505,-16.430
11769,-1.003,6.273,10.306,39.686,-26.131,-7.071
11778,-0.041,7.020,9.728,28.480,-24.696,2.746
11789,-0.681,7.745,8.706,23.365,-28.039,17.051
11799,1.027,7.310,7.454,-5.444,-17.428,22.288
11809,-0.112,6.803,7.763,-22.910,-10.955,25.876
11819,0.232,6.025,7.661,-46.574,-1.001,26.716
11829,0.009,4.532,6.630,-61.994,-1.337,26.426
11839,0.343,2.264,6.907,-71.612,3.595,23.647
11849,0.324,-0.326,6.694,-66.146,7.442,17.280
11859,0.608,-2.352,7.377,-48.727,16.144,5.616
11869,0.596,-2.715,7.340,-17.429,24.099,-5.697
11879,-1.202,-2.162,10.209,12.968,27.579,-11.972
11889,-1.449,-1.119,10.679,39.213,21.045,-16.140
11899,-1.598,0.608,11.104,55.182,11.595,-23.880
11909,-1.790,2.447,11.669,60.282,3.900,-27.727
11919,-1.241,4.088,10.754,55.778,-2.176,-29.880
11929,-1.083,5.064,11.101,44.923,-3.657,-28.598
11939,-1.175,5.367,10.661,39.106,-7.199,-21.300
11949,-1.987,6.110,11.314,42.923,-13.902,-10.964
11959,-1.511,7.359,10.226,36.327,-24.909,1.082
11969,-1.113,7.347,10.061,24.541,-30.024,12.471
11979,-0.476,7.826,7.966,8.541,-35.795,21.800
11989,0.506,7.542,6.870,-19.871,-31.825,27.311
11999,1.680,5.992,5.584,-45.749,-17.092,29.586
12009,1.520,3.906,5.762,-54.956,1.869,29.968
12019,1.022,2.430,5.943,-53.994,14.205,28.670
12049,-0.806,-2.491,8.554,-28.818,40.175,-1.117
12059,-1.587,-2.565,10.813,-7.169,40.419,-13.254
12069,-2.233,-1.283,11.451,22.770,26.984,-19.941
12078,-3.064,0.466,12.793,44.678,10.373,-20.704
12089,-1.932,1.957,11.978,52.007,-2.360,-22.338
12099,-1.625,3.374,11.628,52.129,-11.596,-24.475
12109,-1.128,4.264,11.140,46.846,-14.528,-22.521
12119,-1.194,4.860,11.082,47.930,-18.986,-15.590
12129,-1.259,6.099,10.597,49.930,-25.917,-6.277
12139,-0.590,7.329,9.553,37.671,-28.833,2.471
12149,-0.144,7.840,8.690,17.579,-28.680,11.250
12159,-0.415,7.919,8.426,-3.948,-26.238,19.891
12169,0.806,7.544,6.701,-34.864,-21.947,23.082
12179,0.684,5.944,7.057,-51.352,-9.673,29.143
12189,0.251,4.792,6.803,-56.482,-2.024,35.219
12199,0.544,3.766,6.115,-65.383,5.457,35.006
12209,0.795,1.583,6.174,-75.979,15.488,29.784
12219,0.423,-1.879,7.249,-68.666,24.114,19.693
12229,0.223,-3.991,7.336,-33.642,27.350,4.517
12239,-0.094,-2.636,9.371,2.861,39.503,-10.506
12249,-1.480,-0.868,10.615,33.579,30.984,-13.086
12259,-1.181,0.820,11.147,44.953,24.495,-19.254
12269,-1.898,2.422,11.521,46.617,10.221,-26.827
12279,-1.398,3.639,11.705,36.801,1.732,-32.094
12289,-1.517,4.245,11.252,37.121,-8.894,-28.124
12299,-0.761,5.120,10.546,37.472,-13.352,-22.399
12309,-1.552,6.339,10.676,40.144,-17.963,-12.430
12319,-0.782,6.960,10.226,29.289,-19.154,-2.888
12329,-0.716,7.948,8.627,19.549,-24.879,8.746
12339,-0.070,7.775,8.377,-4.543,-21.306,14.777
12349,-0.283,7.726,7.338,-25.169,-21.001,19.082
12359,1.303,6.790,6.391,-55.108,-10.146,19.494
12368,1.214,5.174,5.933,-66.192,1.198,21.494
12379,0.693,4.028,6.454,-70.482,9.213,21.769
12389,0.209,2.267,6.356,-72.146,13.961,20.868
12399,-0.011,-0.062,7.919,-66.528,24.160,14.456
12409,-0.367,-1.416,7.789,-39.246,25.747,8.120
12419,-1.533,-1.448,10.467,-9.703,25.442,2.731
12429,-1.224,-1.274,10.839,17.823,19.640,-1.972
12439,-0.906,-0.469,10.964,38.373,12.892,-10.460
12449,-1.402,1.253,11.651,49.564,7.274,-21.483
12459,-0.894,2.919,10.584,50.663,0.266,-28.292
12469,-0.932,3.943,11.008,47.136,-0.955,-29.972
12479,-0.898,4.628,10.723,42.648,-6.405,-24.979
12489,-1.607,5.832,10.956,49.198,-11.276,-11.452
12499,-1.481,7.739,9.467,42.434,-24.375,1.189
12509,-0.456,7.829,9.136,20.083,-25.520,13.235
12519,0.110,7.490,7.441,-5.016,-24.207,20.303
12529,0.111,7.551,7.079,-27.032,-22.222,25.494
12539,1.808,6.842,5.313,-61.673,-9.001,27.983
12549,0.799,4.613,6.562,-74.727,7.518,31.510
12559,0.849,3.115,5.865,-78.803,14.572,30.487
12569,0.776,1.696,6.557,-78.070,24.847,27.769
12579,0.442,-0.094,7.198,-71.566,33.503,24.273
12589,-0.117,-1.981,7.781,-48.742,37.457,20.945
12599,-0.414,-2.764,9.899,-15.520,48.083,12.868
12609,-1.891,-1.875,10.763,14.174,35.747,0.074
12619,-2.027,-0.460,12.023,32.739,27.549,-8.353
12629,-1.790,0.668,12.077,42.785,13.717,-15.117
12639,-1.923,1.772,12.091,46.907,2.434,-23.666
12649,-1.313,2.919,11.356,42.495,-7.352,-30.766
12658,-1.525,4.024,11.331,46.159,-15.169,-30.369
12669,-0.961,5.102,10.625,52.678,-20.940,-23.315
12679,-1.442,6.259,10.819,60.923,-26.528,-13.361
12689,-1.444,8.447,8.986,59.427,-42.268,4.517
12699,-0.448,9.634,7.632,28.907,-39.413,26.044
12709,-0.353,8.872,7.505,-12.070,-30.635,40.960
12719,-0.187,7.702,6.679,-51.826,-29.780,43.708
12729,0.408,5.252,6.437,-82.696,-22.909,44.334
12739,0.415,2.345,6.768,-87.230,-13.841,44.044
12749,0.506,0.508,6.901,-81.200,-6.909,37.326
12759,0.779,-1.172,6.817,-73.139,-1.444,26.502
12769,1.085,-3.013,7.382,-58.131,7.656,12.105
12779,0.544,-3.717,8.762,-27.169,21.778,-2.399
12789,-0.620,-2.857,10.201,5.090,22.969,-17.330
12799,-0.894,-1.292,11.306,26.251,19.518,-26.918
12809,-2.204,0.668,11.993,40.648,8.297,-33.178
12819,-2.074,2.848,12.338,38.052,-2.070,-37.132
12829,-1.303,3.488,11.688,32.617,-13.245,-33.407
12839,-0.593,3.715,11.411,30.312,-14.329,-27.834
12849,-1.282,4.790,11.320,39.854,-18.436,-19.162
12859,-1.103,6.067,11.073,38.617,-22.879,-10.857
12869,-1.362,7.583,10.691,31.762,-31.169,2.777
12879,-0.980,8.186,9.319,8.419,-40.375,16.166
12889,0.203,7.448,7.699,-22.574,-38.680,23.708
12899,0.863,6.377,6.819,-47.887,-24.528,27.784
12908,1.013,5.027,6.731,-62.925,-7.062,30.655
12919,0.760,3.778,6.840,-69.658,5.793,34.685
12929,0.840,2.202,6.607,-74.284,13.610,37.052
12939,1.082,-0.148,6.865,-75.612,21.167,31.723
12949,1.060,-2.476,7.437,-65.429,28.221,18.273
12959,0.222,-4.420,9.112,-37.230,37.366,4.471
12969,-0.688,-4.611,11.009,8.205,40.236,-9.132
12979,-1.255,-2.344,11.411,51.381,32.831,-18.445
12989,-1.760,1.039,12.252,66.114,26.770,-24.643
12999,-1.514,3.154,11.787,57.106,12.724,-28.140
13009,-1.115,3.869,11.887,45.564,3.259,-30.170
13018,-0.817,4.659,11.209,36.968,-5.474,-27.514
13049,-0.742,7.990,9.965,15.991,-38.940,12.380
13059,-0.023,7.744,8.188,-4.803,-40.467,22.212
13069,-0.189,7.052,8.210,-22.650,-36.604,32.716
13079,0.633,6.426,6.854,-46.207,-29.169,40.716
13089,0.992,4.246,6.662,-65.108,-16.375,43.907
13099,0.907,2.096,6.612,-70.513,-5.550,43.219
13109,1.034,-0.162,6.555,-71.093,1.213,37.342
13119,1.827,-2.903,6.342,-63.826,12.785,24.639
13129,1.535,-5.145,7.199,-38.757,30.770,5.555
13139,0.438,-4.554,9.172,-1.978,49.259,-15.605
13149,-1.740,-2.133,11.341,36.175,41.335,-28.033
13159,-2.220,0.534,12.170,53.350,23.625,-33.086
13169,-1.696,2.240,11.978,52.801,6.312,-35.147
13179,-1.457,2.898,12.200,52.602,-7.306,-35.727
13189,-0.611,4.492,10.970,48.892,-14.970,-35.758
13199,-0.512,6.106,10.662,41.778,-15.978,-26.216
13209,-0.853,6.725,10.977,32.281,-17.535,-12.002
13219,-1.150,7.322,10.777,24.953,-26.085,3.067
13229,-0.467,7.322,9.893,11.091,-32.375,19.265
13239,-0.921,7.077,9.409,2.861,-34.741,31.922
13249,-0.297,7.605,8.043,-23.749,-38.497,38.395
13259,1.121,6.027,6.609,-60.452,-31.260,40.868
13269,1.709,3.084,6.053,-78.437,-16.344,39.403
13279,1.432,0.814,6.552,-74.849,-3.108,34.884
13289,1.661,-0.770,6.083,-63.978,6.373,28.807
13299,1.858,-2.691,6.100,-50.940,21.411,16.349
13309,0.994,-3.686,7.621,-30.742,40.144,-0.903
13319,-0.693,-3.747,10.218,3.304,41.198,-15.101
13329,-1.231,-1.993,11.015,35.717,31.549,-27.010
13339,-1.474,0.528,11.962,48.297,20.786,-33.376
13349,-1.414,2.179,11.622,52.404,4.480,-33.956
13359,-0.654,3.491,11.386,45.411,-2.665,-36.216
13369,-0.264,4.328,10.678,41.274,-6.940,-32.796
13379,-0.070,4.957,10.850,39.320,-4.573,-25.285
13389,-0.975,5.934,10.968,42.968,-9.230,-13.987
13399,-0.689,6.910,10.613,35.228,-15.825,-2.506
13409,-0.793,7.428,9.989,26.113,-23.428,11.708
13419,-0.833,7.670,9.767,10.602,-24.879,24.135
13429,-0.053,8.036,7.745,-19.520,-29.871,33.296
13439,0.906,6.183,7.180,-54.101,-21.352,39.632
13449,0.967,3.469,6.814,-69.032,-10.589,41.128
13459,1.159,1.821,6.743,-71.154,-3.169,38.029
13469,1.420,-0.059,6.148,-70.650,6.098,32.242
13479,1.687,-2.748,6.661,-64.620,22.160,19.891
13489,1.121,-4.661,7.505,-37.581,34.801,2.792
13499,0.318,-4.166,9.122,-1.261,44.892,-14.277
13509,-1.395,-2.735,11.559,34.785,40.831,-23.315
13519,-1.455,-0.758,11.463,63.411,25.931,-28.613
13529,-1.669,1.877,12.143,68.266,13.442,-38.063
13539,-1.255,3.916,11.742,59.304,-0.466,-39.682
13549,-0.855,4.873,11.281,51.839,-8.741,-35.743
13559,-0.403,5.945,10.626,44.175,-11.047,-26.399
13569,-1.175,6.622,11.002,39.732,-15.276,-12.536
13579,-0.940,7.142,10.812,27.717,-20.802,1.403
13589,-0.930,7.332,9.716,20.251,-30.375,17.845
13599,0.068,7.270,8.378,0.098,-29.932,28.059
13609,-0.147,6.844,7.974,-18.742,-28.390,37.036
13619,1.050,6.291,6.364,-49.261,-20.833,40.594
13629,1.484,3.942,6.237,-75.521,-7.612,39.952
13639,1.337,1.103,6.370,-81.811,2.679,37.891
13649,1.416,-1.381,6.228,-73.429,11.534,31.540
13659,1.808,-3.562,6.305,-58.162,27.854,18.242
13669,1.072,-4.515,7.062,-30.803,42.144,-2.491
13679,-0.570,-3.651,10.520,0.526,53.900,-18.460
13689,-1.727,-2.090,11.572,39.579,39.931,-24.491
13699,-1.835,0.496,12.000,60.801,25.641,-30.048
13709,-1.633,2.941,12.193,55.182,11.167,-35.697
13719,-1.582,4.106,12.077,52.098,-2.924,-32.567
13729,-0.379,5.071,11.238,43.243,-7.505,-28.781
13738,-0.578,5.685,10.913,37.304,-9.963,-20.063
13749,-0.928,6.133,11.318,34.923,-13.306,-7.071
13759,-0.945,6.895,10.616,34.465,-22.085,6.288
13769,-0.379,7.341,9.819,20.449,-26.009,20.013
13779,-0.564,7.403,9.298,7.029,-26.558,32.487
13789,0.343,7.456,7.603,-22.329,-28.970,40.197
13799,0.891,5.956,6.671,-55.673,-20.894,44.074
13809,1.738,3.055,6.152,-78.788,-5.963,42.303
13819,1.295,0.398,6.836,-79.398,5.121,36.013
13829,1.316,-1.378,6.404,-69.719,12.358,28.227
13839,1.697,-3.175,6.158,-55.658,28.709,16.761
13849,0.728,-3.986,8.122,-34.223,49.625,0.166
13859,-0.681,-3.573,10.111,0.220,52.053,-11.972
13869,-1.451,-2.073,11.108,36.587,43.610,-17.559
13879,-1.653,0.765,11.968,52.724,34.480,-22.689
13889,-1.563,2.890,11.709,55.915,21.030,-23.010
13899,-1.055,4.228,11.931,45.365,14.663,-24.460
13908,-0.993,4.964,11.338,37.701,8.083,-19.193
13919,-1.066,5.404,11.759,32.312,5.717,-11.315
13929,-2.136,6.662,12.073,36.617,-5.947,2.242
13939,-1.195,7.725,10.795,24.266,-22.299,16.868
13949,-0.366,7.374,9.267,7.961,-29.093,32.197
13959,-0.508,6.418,9.793,-4.681,-22.207,42.532
13969,-0.264,6.894,7.958,-21.108,-29.657,48.655
13979,1.223,5.483,6.756,-50.543,-19.978,52.502
13989,1.467,2.370,6.289,-64.604,-5.321,51.494
13999,1.317,0.047,6.592,-62.223,6.236,43.174
14009,1.041,-1.968,6.625,-58.940,14.266,32.914
14019,1.139,-4.817,7.056,-47.780,26.282,16.822
14049,-1.814,0.010,11.414,58.434,41.747,-31.987
14059,-1.976,2.525,11.474,63.686,28.892,-30.094
14069,-2.031,4.010,12.022,53.533,18.663,-29.620
14079,-1.338,4.769,11.317,39.411,6.175,-25.911
14089,-1.310,5.041,11.943,38.220,0.007,-16.781
14099,-0.933,6.360,10.590,38.236,-11.764,-7.605
14109,-1.164,7.354,11.172,33.381,-17.092,5.265
14119,0.142,7.356,9.598,16.800,-20.634,17.662
14129,-0.390,7.138,9.624,9.365,-19.108,28.532
14139,-0.009,7.277,7.899,-8.619,-22.054,36.594
14149,-0.041,6.510,7.790,-29.627,-19.474,40.700
14159,1.064,4.858,6.093,-55.047,-14.894,40.303
14169,1.295,2.129,6.440,-64.253,-1.810,37.174
14179,0.758,-0.260,6.676,-58.543,5.732,29.906
14189,1.181,-2.133,6.285,-48.727,15.259,16.609
14199,1.100,-3.932,6.658,-31.261,30.083,-1.162
14209,0.047,-3.748,8.264,-2.421,44.618,-19.590
14219,-1.565,-1.989,10.751,25.228,41.335,-30.506
14229,-1.667,-0.215,10.782,42.816,29.641,-36.079
14239,-2.027,1.238,11.693,56.785,19.625,-40.659
14249,-1.443,3.603,10.935,55.625,7.198,-43.972
14259,-1.399,5.286,11.322,51.762,-1.031,-36.628
14269,-1.036,6.033,10.836,42.907,-5.734,-23.895
14279,-1.054,6.316,10.429,36.938,-11.673,-10.002
14289,-0.810,6.487,10.582,28.510,-13.245,0.639
14299,-1.538,7.114,10.601,26.999,-21.016,15.876
14309,-0.670,7.035,9.486,8.648,-25.444,27.464
14319,-0.646,6.417,8.635,-6.177,-27.230,34.197
14329,0.648,5.770,7.099,-31.948,-22.054,34.166
14338,0.408,4.219,7.357,-48.971,-12.329,33.754
14349,1.170,2.482,6.363,-57.704,-3.352,29.571
14359,1.046,1.014,6.567,-58.727,7.106,22.120
14369,1.038,-0.294,6.242,-56.406,15.289,15.891
14379,0.970,-2.140,6.664,-47.047,26.358,5.433
14389,0.248,-2.734,8.115,-26.986,38.969,-9.346
14399,-0.851,-1.867,9.935,-2.314,40.892,-19.987
14409,-2.063,-1.089,11.215,28.007,31.839,-23.269
14419,-1.951,1.037,12.088,46.694,23.702,-27.498
14429,-2.093,3.235,11.871,53.472,8.862,-26.842
14439,-1.325,4.217,12.042,44.633,1.946,-26.231
14449,-1.236,5.140,11.135,42.510,-6.818,-21.162
14459,-0.999,5.947,11.283,36.846,-8.909,-11.559
14469,-1.129,6.565,10.733,32.999,-16.283,2.303
14479,-0.511,6.664,10.497,24.281,-18.482,15.494
14489,-0.739,6.803,9.010,18.159,-27.673,27.128
14499,-0.430,6.651,9.091,0.953,-22.802,34.364
14509,-0.199,6.937,7.626,-21.413,-25.871,40.273
14519,1.295,5.903,6.306,-55.230,-17.291,43.143
14529,1.550,3.350,5.757,-73.521,-3.199,42.594
14539,1.005,0.960,6.662,-76.757,9.534,36.548
14549,0.573,-1.062,6.673,-68.498,14.037,30.716
14559,1.012,-3.369,6.670,-56.223,26.282,18.593
14569,0.506,-4.105,7.377,-29.597,44.007,0.166
14579,-1.438,-3.199,10.451,5.258,51.244,-12.369
14589,-2.598,-1.494,12.063,38.572,40.801,-17.285
14599,-2.136,0.599,11.928,51.381,29.106,-26.628
14609,-2.732,2.536,12.758,60.556,14.999,-29.514
14619,-1.733,4.489,11.787,55.060,0.709,-30.399
14629,-1.601,5.544,11.882,45.274,-7.642,-26.659
14639,-0.981,5.665,10.868,35.213,-15.520,-18.002
14649,-1.517,6.405,11.095,37.869,-21.154,-7.147
14659,-0.573,7.001,9.822,28.984,-27.688,6.731
14669,-0.572,6.539,10.036,25.152,-25.352,20.120
14679,-0.270,7.419,8.016,16.617,-30.726,30.716
14689,0.294,7.565,7.195,-11.902,-25.551,38.181
14699,1.193,6.245,5.446,-52.604,-18.131,40.288
14709,1.727,3.154,5.535,-77.124,1.808,37.036
14719,0.971,0.636,6.707,-78.879,15.885,27.937
14729,0.081,-0.861,7.097,-66.085,18.068,21.158
14739,0.779,-2.367,6.461,-54.436,25.015,11.784
14749,0.337,-4.047,7.708,-33.261,40.068,-4.262
14759,-1.052,-3.797,9.917,6.648,46.786,-20.033
14769,-1.860,-0.815,10.977,32.678,39.381,-32.002
14779,-2.570,1.325,12.125,47.030,28.450,-31.117
14789,-2.134,3.123,11.687,47.136,12.969,-33.712
14799,-1.817,4.480,11.465,43.411,1.549,-31.254
14809,-1.170,4.882,11.203,35.930,-2.085,-27.285
14819,-1.461,5.551,11.035,40.266,-7.902,-17.880
14829,-1.132,6.634,10.487,36.663,-12.787,-6.323
14839,-1.013,7.089,10.061,30.617,-17.138,7.799
14848,-0.651,6.934,9.804,18.312,-17.718,19.479
14859,-0.873,7.073,8.725,10.220,-23.428,29.677
14869,0.262,6.834,7.493,-20.055,-16.451,33.082
14879,-0.063,5.680,7.262,-44.833,-10.512,35.800
14889,1.037,3.913,6.026,-66.009,0.388,33.983
14899,0.825,1.902,6.407,-75.124,11.534,27.525
14909,0.186,0.049,6.939,-72.574,18.236,22.120
14919,0.023,-2.176,7.281,-61.627,22.908,14.074
14929,-0.114,-4.184,8.227,-36.360,32.282,-0.750
14939,-0.094,-3.298,8.554,-2.482,41.992,-17.559
14949,-2.385,-1.841,11.597,32.709,37.763,-23.117
14959,-2.080,0.133,11.474,51.213,25.900,-29.666
14969,-2.135,2.029,11.650,56.007,14.022,-34.903
14979,-1.965,3.409,11.901,54.816,6.831,-34.537
14989,-2.112,4.984,11.359,54.388,-4.085,-29.834
14999,-1.423,6.031,10.953,41.961,-8.482,-21.697
15009,-1.812,6.281,11.032,35.854,-14.238,-10.765
15019,-1.378,6.851,10.292,31.717,-20.726,1.845
15049,-0.834,7.199,8.216,-8.772,-21.596,38.838
15059,0.505,7.367,5.723,-45.429,-19.108,39.968
15069,1.208,4.783,5.781,-81.475,-2.146,40.670
15079,1.095,1.415,6.084,-91.887,12.770,34.716
15089,-0.027,-0.448,7.235,-80.666,18.480,27.051
15099,-0.044,-2.176,7.084,-67.200,22.343,22.563
15109,0.423,-3.996,6.658,-45.643,33.213,10.273
15119,-1.064,-4.459,9.773,-13.184,48.633,-6.704
15129,-2.282,-3.504,11.596,32.007,41.060,-15.636
15139,-2.523,-0.306,11.529,65.106,28.602,-23.788
15149,-2.858,3.369,12.181,63.976,16.541,-28.399
15159,-2.661,5.302,11.555,44.846,-0.024,-22.796
15169,-1.938,5.216,11.848,23.762,-7.764,-16.140
15179,-1.587,5.524,11.118,19.136,-16.482,-9.193
15189,-2.064,6.189,11.893,23.197,-20.650,3.464
15199,-1.593,7.193,10.207,23.961,-32.375,19.952
15209,-0.763,7.107,9.710,14.159,-28.940,33.219
15219,-0.125,6.650,8.511,-0.070,-27.383,43.784
15229,0.339,5.946,7.412,-16.238,-20.314,49.907
15239,1.071,5.113,6.243,-42.299,-3.627,43.311
15249,1.049,3.512,6.367,-68.711,10.923,33.265
15259,0.860,0.973,6.577,-78.620,22.297,26.166
15269,0.247,-1.093,7.395,-70.253,28.847,18.670
15278,-0.270,-2.551,7.353,-54.467,29.259,9.616
15289,-0.677,-4.004,8.463,-27.536,37.931,1.235
15299,-1.683,-3.892,10.394,13.487,35.442,-10.216
15309,-1.678,-1.776,10.178,41.411,23.808,-22.140
15319,-1.742,0.726,11.013,64.465,27.106,-24.506
15329,-2.349,3.542,11.665,73.213,16.312,-21.987
15339,-1.979,5.382,11.674,66.556,6.053,-16.338
15349,-1.356,5.883,11.307,47.075,-1.993,-14.384
15359,-1.544,5.861,11.510,37.793,-9.505,-7.254
15369,-1.327,6.197,10.627,27.961,-17.077,0.349
15379,-1.545,6.528,10.755,21.075,-25.367,11.128
15389,-1.382,6.293,10.365,13.503,-32.283,22.456
15399,-0.958,6.286,9.120,3.823,-38.696,29.418
15409,-0.592,6.603,8.192,-9.337,-41.215,35.174
15419,0.424,6.059,6.923,-42.146,-34.665,34.334
15429,1.164,3.901,5.962,-73.948,-23.902,27.143
15439,1.414,1.389,5.783,-82.864,-3.902,17.586
15449,0.282,-0.373,7.342,-73.566,10.801,11.128
15459,-0.175,-2.154,7.309,-58.040,12.098,6.502
15469,-0.112,-3.750,7.645,-31.933,20.068,-3.575
15479,-0.313,-3.033,8.358,-4.711,31.442,-18.964
15489,-2.096,-1.641,11.255,27.182,32.954,-25.727
15499,-2.609,0.631,11.846,49.488,21.717,-29.605
15509,-2.720,3.268,12.040,55.152,4.633,-29.987
15519,-1.911,4.909,11.768,40.633,-6.665,-28.674
15529,-1.431,5.088,11.305,34.129,-14.634,-20.292
15539,-1.036,5.269,10.820,28.999,-16.909,-13.483
15549,-1.004,5.363,10.601,31.213,-19.932,-1.101
15559,-0.944,5.704,10.549,34.159,-21.169,8.914
15569,-0.797,6.674,9.624,29.747,-28.314,18.487
15579,-0.434,6.615,8.821,16.449,-29.917,27.372
15589,0.229,6.492,7.192,-9.398,-26.864,29.006
15599,0.652,5.688,6.466,-43.856,-17.703,27.326
15609,0.894,3.475,6.009,-66.406,-5.260,24.807
15619,0.719,1.456,6.525,-71.994,8.663,19.189
15629,-0.161,-0.269,6.917,-67.093,11.503,15.006
15639,0.372,-2.539,6.792,-58.956,20.770,5.509
15649,0.081,-3.900,7.553,-32.543,33.641,-9.987
15659,-1.258,-3.414,9.377,4.755,37.442,-21.926
15669,-1.942,-1.426,10.868,39.381,35.228,-29.239
15678,-2.058,0.979,10.716,55.350,24.572,-34.598
15689,-2.140,3.379,11.845,60.846,16.541,-34.598
15699,-1.963,4.833,11.344,54.816,3.992,-30.537
15709,-1.685,5.186,11.729,42.510,-0.390,-29.269
15719,-1.546,5.411,11.128,33.594,-9.001,-24.735
15729,-1.724,5.544,11.691,34.877,-14.619,-13.819
15739,-1.316,6.504,10.169,37.854,-25.367,-2.582
15749,-1.162,7.177,10.296,30.602,-29.428,8.334
15759,0.052,7.101,7.945,9.945,-28.100,18.868
15769,-0.035,6.774,7.539,-9.642,-25.993,23.738
15779,1.000,6.370,5.936,-43.704,-16.405,23.357
15789,1.266,3.997,5.962,-67.353,0.236,23.754
15799,0.597,1.702,6.344,-73.230,10.816,20.151
15809,0.143,-0.184,6.812,-70.772,17.274,15.662
15819,0.509,-2.438,6.527,-61.368,25.366,8.044
15829,-0.003,-4.118,7.225,-37.612,36.404,-7.834
15839,-0.904,-3.610,9.036,-3.948,49.473,-21.666
15849,-1.975,-1.841,10.488,32.404,45.366,-26.582
15859,-2.784,0.572,11.719,56.037,36.541,-30.369
15869,-2.931,2.981,11.961,61.427,20.633,-32.918
15879,-2.676,4.434,11.999,59.549,5.152,-29.025
15889,-1.729,5.318,11.336,49.991,-3.031,-25.712
15899,-1.708,6.063,11.083,42.404,-7.978,-19.727
15909,-1.791,6.608,11.524,34.831,-11.596,-9.697
15919,-1.499,7.091,10.178,29.121,-21.199,6.593
15929,-0.843,6.818,9.932,15.228,-21.795,16.563
15939,-1.147,6.676,9.373,7.014,-26.024,26.624
15949,-0.244,6.972,7.783,-20.589,-27.917,27.540
15959,0.962,5.793,6.077,-59.200,-18.711,25.571
15969,1.235,2.734,6.072,-77.750,0.221,21.952
15979,0.621,0.692,6.885,-73.948,13.579,14.334
15989,-0.028,-0.491,7.285,-63.276,18.389,9.586
15999,0.368,-2.001,6.655,-51.917,25.931,3.784
16009,-0.300,-3.446,8.240,-33.062,40.190,-10.292
16019,-1.972,-3.250,10.436,3.090,39.015,-20.582
16049,-2.470,3.588,11.387,67.549,5.549,-27.559
16059,-2.406,5.277,11.985,55.579,-2.466,-28.414
16069,-1.972,5.756,11.166,36.739,-11.642,-24.857
16079,-1.715,5.768,11.213,30.419,-16.436,-17.025
16089,-1.783,6.572,10.589,33.350,-23.673,-3.605
16099,-1.811,7.433,10.443,28.129,-30.085,10.929
16109,-1.398,7.509,9.430,15.762,-38.741,26.670
16119,-0.671,6.795,8.571,-4.803,-37.551,35.433
16129,-0.216,5.933,6.859,-30.406,-37.490,35.845
16139,1.010,4.296,5.596,-64.330,-21.902,27.998
16149,0.970,1.751,6.084,-75.597,-2.329,22.685
16159,0.094,-0.135,6.697,-71.062,7.839,15.723
16169,0.368,-1.414,6.064,-59.475,13.167,9.632
16179,0.659,-2.762,6.461,-46.971,26.770,-1.590
16189,-0.137,-3.691,7.748,-20.558,38.557,-16.399
16199,-1.022,-1.936,8.772,12.892,43.671,-29.239
16209,-2.656,0.020,11.395,41.381,41.473,-27.498
16218,-2.929,2.038,11.682,58.831,27.381,-25.346
16229,-2.959,4.401,11.859,56.846,11.182,-23.422
16239,-2.297,5.365,11.682,39.991,2.236,-20.155
16249,-2.340,5.483,11.593,34.526,-7.077,-12.933
16259,-1.771,6.121,11.021,27.594,-13.428,-7.529
16269,-2.001,6.930,10.986,22.159,-19.841,4.074
16279,-1.291,6.888,10.461,5.090,-23.337,13.906
16289,-0.956,6.693,8.701,-3.566,-31.810,27.235
16299,0.247,5.638,8.300,-25.505,-20.268,29.357
16309,0.399,4.839,6.990,-40.299,-13.978,30.532
16319,0.761,3.675,6.617,-55.673,-2.283,27.082
16329,0.543,2.333,6.405,-65.353,8.358,22.135
16339,0.353,0.535,6.403,-67.062,16.053,18.609
16349,0.149,-1.648,6.677,-61.185,25.274,10.151
16359,-0.539,-3.375,7.946,-40.299,32.724,-3.346
16369,-0.472,-3.404,7.546,-6.482,37.060,-16.552
16379,-2.221,-1.676,10.648,25.915,44.450,-24.827
16389,-2.981,0.187,11.396,51.075,31.717,-25.819
16399,-2.723,2.102,11.506,59.869,18.511,-28.308
16409,-2.954,4.176,12.134,56.877,4.938,-29.086
16419,-2.014,5.300,11.083,43.488,-5.642,-26.964
16429,-1.788,5.914,11.369,31.243,-10.085,-19.758
16439,-1.774,6.186,11.501,23.075,-11.657,-10.338
16449,-2.228,6.607,11.017,23.518,-22.894,5.906
16459,-1.098,6.747,9.946,11.228,-26.253,15.433
16469,-1.177,6.419,9.546,0.999,-30.375,25.280
16479,-0.597,6.294,8.304,-15.765,-32.131,30.945
16489,0.466,5.684,6.659,-42.894,-25.322,30.716
16499,0.964,3.763,6.150,-66.574,-9.978,28.227
16509,0.448,1.326,6.830,-75.032,1.915,23.677
16519,0.297,-0.941,6.599,-72.849,9.060,16.716
16529,0.247,-2.932,6.656,-60.757,22.312,4.074
16539,-0.246,-3.715,7.882,-36.131,36.450,-8.720
16549,-1.787,-3.516,9.694,-1.765,39.747,-18.491
16559,-2.268,-1.963,10.446,33.060,35.030,-23.911
16569,-2.446,0.811,11.711,55.900,32.053,-24.292
16579,-2.738,2.700,11.476,64.297,17.442,-20.292
16589,-2.335,4.347,11.933,55.778,10.205,-23.544
16599,-1.940,5.492,11.131,43.762,1.320,-21.056
16609,-2.097,6.129,11.700,34.480,-3.703,-14.323
16619,-2.526,6.688,11.423,31.732,-15.993,-0.170
16629,-1.776,6.944,10.342,22.037,-26.054,12.624
16639,-1.110,6.830,9.439,7.014,-29.841,24.273
16649,-0.835,6.096,9.078,-7.291,-28.344,34.273
16659,-0.457,6.033,7.382,-25.520,-31.108,36.364
16669,1.056,5.054,5.948,-57.811,-15.627,30.517
16679,0.244,2.768,6.831,-71.154,-1.489,29.036
16689,0.013,0.758,6.532,-71.261,4.770,22.777
16699,0.277,-0.577,6.252,-67.398,11.595,11.937
16709,0.160,-2.476,6.765,-57.673,24.633,2.853
16719,-1.010,-4.199,8.577,-29.704,33.076,-9.422
16729,-1.025,-3.257,8.152,9.778,36.312,-21.315
16739,-2.887,-0.597,11.693,43.823,38.099,-22.949
16749,-3.171,1.316,11.701,57.854,22.343,-20.536
16759,-3.131,2.621,12.150,57.579,5.625,-21.224
16769,-2.325,3.973,11.853,49.091,-3.520,-23.529
16779,-2.362,5.083,11.653,44.373,-12.238,-18.949
16789,-1.623,5.665,11.107,32.022,-16.909,-13.468
16799,-2.407,5.996,11.416,30.907,-24.192,-1.636
16809,-1.911,6.188,11.362,18.648,-25.505,6.532
16819,-1.884,6.335,10.117,12.984,-36.054,18.563
16828,-1.174,6.322,8.988,-4.009,-41.016,24.441
16839,-0.746,6.048,7.815,-26.391,-42.497,27.097
16849,0.752,5.130,6.000,-55.139,-34.696,24.624
16859,1.307,3.135,5.754,-70.696,-15.810,22.349
16869,0.953,1.317,6.125,-72.223,-0.299,20.334
16879,0.951,-0.563,5.799,-67.444,11.595,14.303
16889,0.473,-2.370,6.929,-52.727,26.205,5.693
16899,-0.057,-2.900,7.670,-26.681,36.251,-5.132
16909,-1.796,-2.881,10.196,5.167,36.679,-12.414
16919,-2.564,-1.658,11.730,38.251,26.144,-17.682
16929,-2.493,0.608,11.454,59.030,11.839,-19.529
16939,-2.316,2.741,12.011,60.266,1.457,-23.559
16949,-1.425,3.735,11.077,49.060,-8.222,-28.124
16959,-1.483,4.438,11.464,43.854,-13.718,-29.040
16969,-1.272,5.576,11.348,36.541,-18.711,-27.101
16979,-2.441,7.298,12.144,36.434,-28.253,-10.140
16989,-1.693,8.233,10.042,23.732,-45.413,11.326
16999,-0.713,7.658,9.142,2.236,-48.375,25.357
17009,0.163,6.735,7.615,-19.093,-38.894,32.929
17019,0.344,6.220,6.701,-37.108,-29.947,36.410
17049,0.293,-0.081,6.469,-78.528,15.763,26.532
17059,0.218,-2.322,6.779,-71.841,25.396,16.212
17069,-0.435,-4.539,7.821,-50.039,35.656,4.456
17079,-1.094,-5.558,9.035,-14.742,45.213,-10.735
17089,-2.424,-4.380,11.199,33.442,41.732,-24.246
17099,-2.761,-0.871,11.730,69.045,29.763,-31.391
17109,-3.101,2.527,11.794,80.266,12.175,-29.911
17119,-2.504,4.571,11.991,64.770,2.908,-32.933
17129,-2.079,5.326,11.451,44.877,-8.405,-31.911
17139,-1.942,5.525,11.939,28.449,-11.993,-29.926
17149,-1.945,6.148,10.941,27.747,-23.367,-15.651
17159,-1.267,6.638,10.008,22.327,-29.734,-2.414
17169,-1.272,6.849,9.744,16.770,-32.619,11.311
17179,-0.611,6.661,8.786,1.396,-31.031,20.380
17189,-0.149,6.577,7.092,-14.436,-34.543,26.884
17199,0.704,6.029,6.623,-42.467,-22.283,26.822
17209,1.133,4.243,5.725,-66.375,-7.673,27.250
17219,0.652,1.959,6.314,-79.276,5.274,25.021
17229,0.463,-0.286,6.144,-83.215,15.656,19.082
17239,0.226,-2.742,6.969,-77.307,27.274,10.761
17249,-0.482,-4.894,7.715,-52.146,35.244,1.204
17259,-0.679,-4.918,8.495,-13.016,44.251,-14.506
17269,-2.129,-2.775,11.405,29.655,45.274,-25.407
17279,-2.798,-0.024,11.682,60.816,29.045,-25.834
17289,-2.795,2.629,12.087,70.495,14.663,-25.666
17299,-1.969,4.834,11.471,56.572,2.373,-27.330
17309,-1.623,5.370,11.652,38.266,-4.558,-23.788
17319,-1.168,5.246,10.948,28.602,-8.329,-18.918
17329,-2.014,5.922,11.414,29.136,-14.711,-11.300
17339,-1.505,6.630,10.863,19.961,-18.497,0.044
17349,-1.746,6.589,10.753,15.900,-26.879,14.609
17359,-1.265,6.692,8.952,4.526,-35.810,24.426
17369,-0.404,6.239,7.794,-20.146,-34.100,27.021
17379,0.489,5.219,6.260,-47.093,-24.802,26.487
17389,0.932,3.193,6.333,-67.490,-8.008,22.624
17399,0.321,0.963,6.647,-72.559,1.366,19.586
17409,0.385,-1.371,6.193,-70.971,9.656,12.731
17419,0.353,-3.905,7.089,-55.520,27.564,3.128
17429,-0.728,-5.005,8.264,-19.429,35.824,-10.796
17439,-1.659,-3.512,9.975,19.320,35.183,-25.010
17449,-2.541,-1.083,11.244,54.312,30.205,-26.369
17459,-2.665,1.812,11.265,72.022,18.022,-26.720
17469,-2.450,4.526,11.760,62.862,6.221,-27.559
17479,-1.807,5.260,11.116,42.404,-2.360,-21.529
17489,-1.756,5.099,11.367,31.091,-8.650,-16.002
17499,-1.436,5.555,10.857,24.984,-12.741,-9.132
17509,-1.866,6.533,10.998,24.663,-18.848,3.418
17519,-1.194,7.064,9.708,16.129,-23.810,19.616
17529,-0.914,6.694,9.484,0.052,-22.680,29.555
17539,-0.065,6.242,7.569,-21.276,-20.787,36.670
17549,0.017,5.239,7.381,-47.643,-13.138,37.723
17559,0.476,3.192,6.861,-74.024,-0.772,34.059
17569,0.015,0.484,7.054,-86.070,6.358,27.784
17579,0.005,-1.918,6.518,-84.574,14.037,17.845
17589,0.520,-3.609,6.752,-66.742,27.992,7.906
17599,-0.430,-4.467,8.234,-36.894,39.900,-3.590
17609,-1.134,-3.434,8.810,0.678,42.908,-14.155
17619,-1.892,-0.871,11.104,31.823,43.961,-17.193
17629,-2.578,1.298,11.859,48.526,32.938,-16.735
17639,-2.483,3.057,11.878,46.312,16.847,-20.430
17649,-2.310,4.093,12.359,36.159,5.442,-21.514
17659,-1.955,4.498,11.555,32.541,-6.237,-13.620
17669,-1.578,5.043,11.482,26.984,-11.321,-8.475
17679,-1.400,5.626,11.379,21.350,-12.940,-1.086
17689,-1.503,5.727,10.442,16.174,-20.115,11.097
17699,-1.115,5.381,9.907,7.762,-23.825,19.235
17709,-1.040,5.009,10.097,-0.665,-21.276,24.868
17719,-0.834,5.484,8.022,-11.322,-27.810,29.555
17729,0.296,5.133,7.409,-43.169,-17.703,26.899
17739,0.618,3.019,6.640,-63.566,-6.940,26.349
17749,0.248,0.749,7.138,-66.895,3.472,21.967
17759,0.326,-0.868,6.707,-59.078,10.892,16.151
17769,0.217,-2.598,7.277,-48.039,20.816,4.883
17779,-0.385,-3.713,8.008,-23.719,30.724,-7.223
17789,-1.451,-3.406,10.107,13.091,31.915,-17.911
17799,-2.023,-1.731,10.917,48.495,22.312,-24.521
17809,-2.256,1.149,11.379,65.213,14.984,-29.040
17819,-2.389,3.397,11.298,65.503,1.824,-28.521
17829,-2.056,4.757,11.621,53.243,-5.291,-27.132
17839,-1.941,5.237,11.178,41.442,-12.711,-21.697
17849,-1.700,5.446,11.484,33.045,-16.268,-14.292
17859,-1.963,6.093,10.749,34.709,-25.978,-0.323
17869,-1.402,6.804,10.214,24.694,-32.421,10.609
17879,-1.001,6.539,9.090,12.251,-37.428,24.029
17889,-0.714,5.987,8.554,-4.925,-36.543,29.922
17899,0.392,5.637,6.473,-30.559,-31.322,30.059
17909,1.296,3.784,5.883,-61.383,-14.925,27.204
17919,0.678,0.660,6.416,-73.353,-0.405,24.410
17929,0.533,-1.839,5.877,-68.788,8.801,17.738
17939,1.228,-3.023,5.763,-54.436,30.373,6.792
17949,-0.392,-4.224,8.095,-35.413,41.747,-7.987
17959,-1.383,-4.102,8.897,-3.413,45.244,-21.514
17969,-1.793,-1.565,10.139,32.205,48.908,-28.048
17979,-3.336,1.216,12.373,54.602,35.244,-26.888
17989,-2.856,2.909,11.841,57.549,16.358,-25.956
17999,-2.625,4.443,12.022,52.236,2.938,-25.437
18009,-2.072,5.502,11.827,39.732,-4.115,-20.674
18019,-2.345,5.667,11.791,33.579,-13.505,-9.147
18049,-1.741,6.037,11.081,9.487,-27.322,21.189
18059,-0.807,5.670,8.672,1.930,-32.100,31.006
18069,-0.250,5.243,7.991,-17.398,-28.268,32.074
18079,0.050,4.209,7.315,-42.833,-20.436,29.464
18089,0.792,1.993,6.372,-66.284,-12.085,23.418
18099,0.702,-0.825,6.281,-73.154,1.121,14.471
18109,0.798,-2.629,5.903,-61.139,15.488,5.158
18119,0.096,-3.504,7.175,-39.459,31.564,-4.918
18129,-1.050,-3.755,8.820,-8.940,38.450,-14.536
18139,-1.170,-1.670,8.709,23.396,40.557,-23.544
18149,-2.579,0.856,11.541,44.312,38.770,-22.384
18159,-2.875,2.067,11.857,51.656,22.999,-21.193
18169,-2.366,3.775,11.611,48.785,10.098,-23.956
18179,-2.359,5.022,11.848,42.266,0.144,-17.391
18189,-1.748,5.162,11.320,31.793,-7.123,-10.475
18199,-1.845,5.336,10.958,28.892,-15.092,-2.994
18209,-1.483,5.446,10.919,22.892,-18.573,4.502
18219,-1.522,5.555,10.454,22.220,-25.123,15.036
18229,-1.010,5.564,9.635,14.846,-26.818,24.700
18239,-0.684,5.407,8.283,3.090,-29.047,31.998
18249,-0.281,4.969,7.830,-20.574,-22.100,30.853
18259,0.593,3.728,6.496,-47.475,-14.070,25.097
18269,0.739,1.461,6.531,-63.093,-1.749,19.189
18279,0.418,-0.821,6.406,-62.421,8.679,11.433
18289,0.435,-2.058,6.247,-49.566,20.892,1.738
18299,-0.025,-2.566,7.081,-32.589,34.266,-9.865
18309,-1.292,-2.375,8.990,-9.566,42.663,-19.376
18319,-2.093,-1.384,10.573,18.862,40.251,-24.353
18329,-2.621,0.231,11.047,47.182,27.915,-23.178
18339,-3.023,2.561,12.316,58.938,16.724,-24.002
18349,-2.637,4.074,11.688,55.640,1.137,-22.246
18359,-2.185,4.648,11.999,47.213,-7.276,-20.460
18369,-1.590,4.974,11.153,39.488,-13.474,-15.987
18379,-1.979,5.613,11.768,38.114,-18.467,-9.941
18389,-1.706,6.740,9.993,36.251,-30.421,4.502
18399,-0.995,6.652,10.156,18.251,-29.154,12.914
18409,-0.355,6.223,8.599,1.274,-26.390,22.548
18419,-0.700,6.220,7.825,-11.444,-29.841,29.342
18429,0.823,5.631,6.081,-43.215,-16.863,28.059
18439,0.423,3.528,6.652,-64.895,-3.627,27.280
18449,0.048,1.021,6.418,-73.917,3.686,24.502
18459,0.429,-1.259,5.932,-76.711,12.785,12.899
18469,0.507,-3.639,6.642,-67.475,27.931,0.364
18479,-0.699,-5.474,8.150,-33.994,38.511,-14.155
18489,-1.411,-4.014,8.945,13.197,44.404,-28.475
18499,-2.604,-0.499,11.354,48.831,44.557,-30.613
18508,-3.733,2.016,12.104,63.839,24.709,-28.109
18519,-3.233,3.708,12.349,58.373,6.663,-28.323
18529,-2.282,4.623,11.436,46.465,-7.352,-27.147
18539,-1.885,5.118,11.651,36.755,-11.856,-23.697
18549,-1.411,5.676,10.297,31.762,-17.703,-17.407
18559,-2.082,6.344,11.300,30.541,-20.848,-6.353
18569,-1.004,6.638,9.569,15.655,-22.543,5.036
18579,-1.475,6.230,10.133,9.579,-26.741,16.990
18589,-0.821,6.360,8.152,-1.413,-31.856,28.044
18599,-0.515,5.905,7.690,-24.391,-28.757,31.235
18609,0.533,4.537,5.963,-56.635,-20.573,26.716
18619,0.778,1.919,6.351,-72.375,-3.749,22.044
18629,0.235,-0.385,6.627,-69.948,7.427,13.952
18639,0.434,-1.852,6.144,-59.169,17.335,4.380
18649,0.379,-2.838,6.889,-43.734,34.099,-6.643
18659,-0.469,-3.102,7.886,-17.826,44.633,-17.056
18669,-2.017,-2.364,10.388,9.014,48.251,-26.262
18679,-2.749,-1.065,11.638,38.465,37.839,-27.590
18689,-3.218,0.972,11.980,63.075,22.877,-27.819
18699,-2.777,3.980,12.251,61.885,10.266,-30.475
18709,-2.412,5.156,11.617,47.885,-2.818,-27.254
18719,-1.940,5.084,11.827,34.999,-7.062,-23.956
18729,-2.239,5.599,11.343,33.259,-15.749,-15.819
18738,-2.349,6.351,11.876,28.846,-23.001,-4.582
18749,-2.116,7.125,9.939,23.732,-38.558,11.097
18759,-1.345,6.651,9.904,5.029,-40.100,21.571
18769,-1.010,6.211,7.825,-11.474,-44.940,29.113
18779,0.222,5.166,7.226,-42.314,-31.657,26.166
18789,0.259,3.719,6.387,-61.520,-23.398,24.655
18799,0.487,1.818,6.700,-76.971,-9.917,17.113
18809,0.206,-0.322,6.430,-79.521,-3.260,10.929
18819,0.274,-2.408,6.689,-70.879,9.060,3.051
18829,-0.137,-3.998,7.402,-47.948,19.671,-8.521
18839,-0.544,-4.056,8.700,-14.711,27.427,-20.063
18848,-1.684,-3.073,10.582,23.564,29.702,-26.918
18859,-1.730,-0.788,10.486,59.976,25.427,-28.384
18869,-2.476,2.642,11.645,71.595,19.549,-33.071
18879,-2.392,4.644,11.495,57.762,8.205,-31.926
18889,-2.473,4.786,11.949,44.999,-3.581,-29.376
18899,-2.204,5.400,11.559,35.335,-12.711,-26.659
18909,-2.489,6.409,11.357,34.465,-21.947,-14.475
18919,-1.766,6.989,10.306,23.365,-32.467,-1.361
18929,-1.849,6.606,10.488,19.732,-37.031,14.746
18939,-0.463,6.345,8.586,2.129,-35.795,25.082
18949,-0.774,5.889,8.261,-6.726,-34.192,34.197
18959,-0.027,5.383,7.091,-33.612,-30.665,35.372
18969,0.720,3.607,6.242,-63.200,-21.230,30.838
18979,0.701,0.611,6.355,-80.070,-8.375,21.708
18989,0.393,-1.803,6.410,-75.887,0.114,11.143
18999,0.847,-3.228,6.394,-58.803,14.572,1.311
19009,0.314,-4.149,7.328,-33.169,29.457,-11.544
19019,-0.897,-3.676,9.049,1.442,40.816,-21.315
19049,-3.042,3.693,12.363,56.526,14.373,-25.269
19059,-2.354,4.902,11.113,40.633,-1.612,-24.307
19069,-1.813,5.304,11.578,24.571,-6.757,-20.536
19079,-1.639,5.491,10.735,18.144,-13.764,-11.285
19089,-1.934,5.829,11.256,21.823,-18.161,0.349
19099,-1.509,6.499,10.347,14.373,-24.772,12.319
19109,-1.572,5.801,10.973,7.640,-26.314,25.922
19119,-1.814,6.537,9.330,1.335,-38.741,35.052
19129,-1.011,6.320,8.544,-26.650,-41.367,40.395
19139,-0.160,5.073,6.955,-63.536,-37.261,38.059
19149,0.609,2.206,6.640,-93.276,-27.199,29.296
19159,0.750,-1.040,6.591,-98.879,-16.024,20.044
19169,1.224,-3.008,5.704,-81.337,-2.573,12.059
19179,1.712,-3.621,6.123,-59.062,24.236,2.257
19189,0.007,-4.356,7.775,-26.436,36.679,-9.437
19199,-0.910,-3.009,9.531,8.342,42.404,-19.453
19209,-1.951,-0.406,11.047,37.060,38.801,-22.445
19219,-3.272,2.399,12.503,50.465,20.587,-21.620
19229,-2.673,4.505,12.435,31.350,-2.741,-23.407
19239,-2.127,5.113,11.859,13.854,-20.573,-18.918
19249,-1.510,5.024,11.477,-0.192,-28.222,-14.765
19259,-1.317,5.387,10.959,-1.154,-33.108,-5.330
19269,-1.129,5.659,11.225,-1.352,-34.299,10.044
19279,-1.004,6.010,10.324,-3.459,-40.528,25.845
19289,-0.713,5.589,10.107,-14.314,-42.894,37.815
19299,-0.769,5.324,9.167,-30.162,-48.574,45.723
19308,0.287,3.666,8.118,-58.711,-46.909,47.082
19319,0.181,1.299,7.639,-78.559,-41.642,39.342
19329,0.988,-1.152,6.743,-89.963,-34.497,26.853
19339,1.305,-3.075,6.336,-82.055,-20.894,14.578
19349,1.179,-4.108,6.811,-62.772,-2.619,3.372
19359,0.846,-4.784,7.937,-34.299,13.671,-8.307
19369,0.037,-4.234,8.826,5.518,21.656,-20.430
19379,-1.110,-0.970,11.295,36.373,27.549,-26.475
19389,-1.876,1.232,11.700,40.220,11.610,-27.071
19399,-1.649,2.467,12.370,31.136,-4.634,-30.308
19409,-1.372,2.413,12.648,20.159,-16.726,-31.605
19419,-1.487,2.215,12.187,28.633,-30.024,-27.453
19429,-0.495,3.177,11.833,39.045,-35.215,-20.216
19439,-0.876,3.843,11.848,47.946,-40.558,-11.834
19449,-0.689,4.514,11.717,46.953,-47.795,-4.781
19459,-0.842,5.332,10.583,46.816,-61.429,4.166
19469,-0.215,5.228,10.237,36.129,-65.169,11.006
19478,-0.509,6.121,9.786,28.862,-71.734,19.311
19489,0.904,6.965,7.390,-5.047,-74.833,26.303
19499,2.427,4.748,5.731,-45.276,-59.261,24.242
19509,2.667,1.349,6.029,-62.956,-32.802,19.250
19519,2.017,-1.563,6.404,-54.406,-17.123,14.517
19529,2.094,-4.134,6.689,-38.162,-3.505,4.425
19539,2.080,-5.815,6.712,-13.932,13.503,-12.155
19549,0.432,-5.923,9.440,22.785,22.969,-32.506
19559,-1.047,-3.096,11.383,60.572,14.908,-44.781
19569,-0.940,1.137,11.822,77.305,2.526,-46.888
19579,-1.058,3.464,12.411,71.167,-15.932,-44.872
19589,0.017,4.471,11.325,57.167,-27.169,-44.338
19598,0.609,5.172,10.330,45.869,-29.902,-39.361
19609,0.608,5.057,11.584,40.678,-22.314,-27.514
19619,-0.766,6.122,11.598,51.762,-28.925,-5.254
19628,-0.420,7.132,10.834,44.480,-38.909,14.807
19639,0.054,6.764,9.502,25.426,-47.367,27.800
19649,-0.086,6.166,9.416,7.442,-50.589,36.273
19659,1.177,5.210,7.775,-22.818,-51.917,38.777
19669,1.957,2.314,7.007,-45.368,-42.177,37.189
19679,2.398,-0.584,6.378,-51.047,-28.115,27.891
19689,2.729,-2.267,5.694,-47.246,-12.802,12.899
19699,2.862,-3.126,5.607,-36.116,8.755,-2.231
19709,1.788,-3.322,7.302,-16.574,25.824,-16.811
19719,0.848,-2.432,9.032,12.434,32.541,-26.582
19729,0.628,0.444,8.651,36.052,31.961,-31.422
19739,-0.825,2.923,11.928,42.297,28.037,-29.315
19749,-0.211,3.605,11.897,36.175,14.770,-27.605
19759,-0.090,3.888,11.976,31.946,0.190,-23.697
19769,0.815,3.824,11.881,31.747,-2.802,-20.140
19779,0.281,4.845,11.385,41.549,-7.841,-10.674
19789,1.022,5.765,11.050,41.808,-9.841,0.883
19799,1.347,5.757,10.153,34.526,-12.207,10.273
19809,0.751,6.114,10.081,30.190,-14.283,19.479
19819,0.709,6.791,9.473,17.426,-18.879,28.914
19829,1.423,6.402,8.172,-11.566,-23.138,35.983
19839,1.333,4.931,7.409,-37.490,-18.833,37.281
19848,1.973,2.551,6.921,-57.658,-12.634,33.677
19859,2.294,-0.245,6.427,-64.864,-3.337,27.601
19869,2.924,-2.470,5.688,-60.742,12.434,16.945
19879,2.771,-4.148,6.266,-43.917,38.144,1.296
19889,1.370,-4.264,8.231,-13.047,52.267,-14.414
19899,0.920,-1.770,9.264,14.571,60.572,-26.659
19909,-1.117,0.030,11.594,38.510,47.961,-29.391
19919,-1.168,2.047,12.492,53.976,30.389,-30.140
19929,-0.557,4.973,11.894,48.114,12.434,-28.414
19939,-0.317,5.203,12.018,37.381,0.556,-18.811
19949,0.757,4.817,11.292,31.869,-3.031,-13.529
19959,0.356,5.313,11.664,32.907,-5.245,-6.628
19969,0.418,5.907,11.012,29.289,-12.573,3.174
19979,-0.236,6.449,10.531,30.098,-22.283,15.677
19989,0.272,6.724,10.029,21.869,-29.383,26.380
19999,0.651,6.685,8.929,4.861,-31.566,37.601
20009,1.047,5.842,8.022,-17.291,-30.161,43.174
20019,1.456,4.411,6.945,-39.795,-26.970,42.334
20049,3.186,-4.235,5.467,-52.925,18.312,4.135
20059,2.509,-5.238,6.781,-27.933,39.732,-14.796
20069,0.912,-3.612,8.683,8.526,53.488,-32.857
20079,-0.846,-0.450,11.180,39.594,50.954,-39.178
20089,-1.241,2.423,11.685,51.640,33.885,-39.040
20099,-1.147,4.687,12.492,43.762,15.396,-35.651
20108,-0.136,4.732,11.585,33.228,-2.741,-28.124
20119,0.265,4.514,11.832,34.220,-8.207,-23.514
20129,0.545,5.570,10.913,36.770,-14.299,-14.307
20139,-0.422,6.026,11.555,44.083,-21.306,-1.162
20149,0.710,6.918,10.418,34.205,-29.291,8.609
20159,0.366,6.634,9.720,28.083,-34.558,22.593
20169,1.231,5.898,9.401,18.633,-31.031,28.853
20179,0.709,7.070,8.129,4.251,-36.421,37.968
20189,2.139,5.784,6.678,-28.772,-29.551,42.242
20199,2.224,3.154,6.054,-52.482,-16.268,36.960
20209,2.711,0.693,5.761,-65.200,-1.520,26.135
20219,2.492,-1.822,5.937,-67.459,14.037,12.135
20229,2.313,-4.026,6.544,-54.696,31.091,-3.254
20239,1.113,-4.620,8.501,-24.116,42.221,-21.575
20249,0.622,-3.249,9.320,14.694,44.511,-33.101
20259,-1.019,0.190,11.545,48.068,37.350,-38.063
20269,-0.869,3.019,11.933,57.274,19.366,-35.987
20279,-0.475,4.305,12.612,49.121,3.610,-35.666
20289,0.319,5.243,10.998,40.617,-9.337,-32.246
20299,0.631,5.996,10.915,34.052,-11.352,-26.262
20309,1.044,6.505,10.425,26.052,-12.772,-15.453
20319,-0.265,7.022,10.351,30.251,-21.581,2.257
20329,1.277,6.668,9.401,17.839,-22.634,11.800
20339,0.286,6.093,10.177,15.182,-20.634,25.051
20349,0.704,6.494,9.137,7.396,-26.161,35.647
20358,0.904,6.898,7.391,-13.826,-29.581,42.990
20369,1.946,4.948,6.437,-45.215,-19.077,41.403
20379,2.256,2.011,6.261,-60.574,-5.383,35.586
20389,2.319,-0.484,6.178,-59.719,7.961,23.189
20399,2.474,-2.460,5.926,-54.146,18.465,8.166
20408,2.383,-4.104,6.889,-36.574,37.183,-9.651
20419,0.422,-3.580,9.482,-3.322,46.908,-27.346
20429,-0.520,-1.322,10.721,30.281,37.091,-34.750
20439,-0.799,1.124,12.103,47.396,25.015,-37.880
20449,-0.640,3.242,11.189,52.617,6.679,-37.941
20459,0.130,5.168,11.399,45.335,-1.764,-36.033
20469,0.574,5.784,10.876,33.732,-6.772,-29.972
20479,0.550,6.267,10.727,29.472,-8.512,-22.155
20489,0.561,6.935,10.257,25.869,-13.428,-7.941
20499,0.034,7.136,10.672,23.228,-17.489,6.502
20509,0.010,8.125,9.995,12.449,-27.535,21.097
20519,0.503,6.810,9.609,-1.230,-28.970,35.632
20529,1.438,6.315,7.661,-23.917,-29.947,39.830
20539,1.125,4.990,7.484,-39.307,-22.375,43.677
20549,1.747,3.219,6.805,-54.711,-16.589,41.296
20559,2.133,0.721,6.384,-60.956,-5.428,33.906
20569,2.368,-1.563,5.895,-62.482,6.175,19.922
20579,2.522,-3.588,6.340,-52.727,21.549,3.265
20589,1.710,-4.655,8.010,-25.307,35.595,-14.903
20599,1.265,-2.698,8.848,7.930,45.747,-30.872
20609,-0.980,-0.348,11.266,42.816,35.289,-32.628
20619,-0.376,2.713,11.439,52.358,23.121,-35.285
20628,-0.354,4.629,11.524,43.030,8.877,-33.269
20639,0.025,4.709,11.608,36.022,0.938,-28.827
20649,0.397,5.604,10.265,35.518,-6.146,-22.353
20659,0.581,6.322,11.019,33.686,-5.001,-10.735
20669,-0.127,7.293,10.099,28.968,-13.337,3.769
20679,-0.192,7.077,11.252,22.236,-15.825,15.738
20689,1.138,7.201,8.721,2.907,-27.627,29.494
20699,0.889,5.808,9.312,-6.406,-19.001,36.655
20709,0.576,6.682,7.988,-19.642,-25.123,43.464
20719,1.893,5.131,7.007,-48.039,-17.947,44.884
20729,2.011,2.243,6.384,-63.505,-6.024,40.303
20739,2.203,0.119,6.284,-66.284,5.121,27.509
20749,2.240,-2.063,6.478,-61.826,15.442,15.723
20759,2.242,-4.403,6.995,-43.887,27.488,-2.826
20769,1.870,-4.240,7.872,-8.161,43.946,-20.735
20779,0.131,-1.794,10.245,29.030,48.465,-29.804
20789,-0.543,0.301,11.448,54.053,39.198,-32.185
20799,-0.484,3.077,11.890,57.350,27.931,-36.170
20809,-0.550,4.275,11.561,51.915,12.969,-32.582
20819,0.205,5.088,11.779,40.724,9.045,-33.147
20829,-0.123,6.278,10.667,35.793,-1.047,-23.224
20839,-0.465,6.492,11.691,35.320,-6.787,-10.704
20849,-0.314,7.531,10.839,30.694,-18.802,5.479
20859,-0.040,6.895,10.575,22.984,-24.070,21.204
20869,0.220,6.883,9.530,17.655,-30.573,32.380
20879,0.900,7.353,8.302,-0.009,-32.573,42.166
20889,1.740,6.332,6.713,-30.345,-25.215,46.777
20899,2.207,3.845,6.054,-57.001,-10.192,41.311
20909,2.064,1.411,6.307,-65.902,4.389,32.807
20919,1.631,-0.610,6.792,-63.719,11.411,23.265
20929,2.054,-2.918,6.727,-58.406,18.770,8.945
20939,1.831,-4.702,7.518,-34.452,34.053,-10.048
20949,0.427,-4.444,9.929,9.900,41.091,-26.750
20959,-0.215,-1.125,10.524,47.274,37.274,-37.498
20969,-1.366,2.067,12.216,66.465,21.671,-37.132
20979,-0.737,4.393,12.492,60.434,6.587,-38.033
20989,-0.266,5.813,11.167,43.778,-9.779,-33.911
20999,0.819,5.393,11.223,32.465,-11.978,-28.796
21009,0.368,5.960,11.286,38.694,-16.879,-16.888
21019,0.357,7.146,10.791,39.930,-21.993,-2.185
21049,0.008,8.061,8.712,13.289,-33.581,37.219
21059,1.829,7.392,7.041,-15.627,-30.497,42.731
21069,1.187,5.143,7.129,-33.307,-18.451,45.219
21079,1.967,3.718,6.291,-49.841,-10.955,40.288
21089,2.165,1.596,5.933,-60.757,1.167,35.937
21099,2.416,-1.480,5.965,-66.162,13.808,19.662
21109,2.397,-4.175,6.588,-55.551,26.328,-0.613
21119,1.553,-5.173,7.721,-21.184,40.038,-21.956
21129,0.297,-3.084,10.450,20.800,53.625,-36.033
21139,-1.238,-0.232,11.688,57.411,39.320,-36.964
21149,-1.631,3.151,12.563,71.747,18.221,-36.613
21159,-0.318,5.397,11.687,56.327,1.121,-35.315
21169,-0.454,5.923,11.751,46.358,-10.833,-26.796
21179,0.568,6.259,10.655,35.991,-14.757,-22.048
21189,-0.293,6.699,11.148,39.579,-16.497,-8.674
21199,1.129,6.730,10.539,27.136,-17.184,0.380
21209,-0.104,7.563,9.752,27.854,-24.085,17.616
21219,0.829,7.541,8.804,14.037,-26.848,26.471
21229,0.338,7.441,8.505,4.816,-28.848,39.342
21239,1.716,7.252,6.694,-24.436,-24.909,41.632
21249,1.763,5.246,6.423,-50.696,-12.192,42.624
21259,1.869,2.661,6.255,-64.024,-2.283,37.693
21269,1.827,0.405,6.249,-67.582,4.999,29.708
21279,2.334,-2.476,6.407,-65.444,15.778,14.548
21289,2.414,-4.488,6.003,-46.696,32.022,-7.712
21299,0.633,-4.149,9.430,-7.444,44.831,-27.804
21309,-0.466,-2.140,11.525,38.068,40.496,-35.208
21319,-0.597,1.773,10.824,63.930,25.305,-38.231
21329,-0.393,4.777,12.007,56.663,15.259,-37.361
21339,-0.154,5.338,11.022,43.381,0.266,-32.628
21349,-0.028,5.789,11.040,37.274,-7.902,-29.529
21359,1.120,5.899,10.943,28.052,-8.268,-22.827
21369,-0.461,6.548,11.732,36.068,-13.169,-8.002
21379,0.699,8.091,9.146,26.266,-27.810,8.212
21389,0.089,7.518,9.514,16.510,-25.413,20.212
21399,1.125,6.828,8.786,1.976,-24.283,27.433
21409,0.985,7.705,6.988,-15.703,-25.566,35.235
21419,1.918,6.366,6.223,-45.475,-12.467,36.838
21429,1.775,3.810,6.058,-61.688,-0.085,37.082
21439,1.982,1.829,6.030,-66.742,11.045,32.609
21449,1.740,-0.381,6.433,-68.757,19.717,23.113
21459,1.926,-3.269,7.040,-62.269,29.564,5.784
21469,1.594,-4.750,7.990,-34.513,40.389,-16.323
21479,-0.034,-3.664,10.474,12.923,45.366,-29.605
21489,-0.269,-0.711,11.475,47.717,40.831,-35.239
21499,-0.907,2.725,11.383,60.984,24.068,-37.315
21509,-0.597,4.196,12.109,55.411,10.190,-36.216
21519,0.090,5.045,10.955,46.541,-2.390,-35.269
21529,-0.147,5.813,11.296,46.007,-6.482,-29.636
21539,0.283,7.003,10.535,42.266,-12.925,-18.689
21549,0.308,7.633,10.114,35.335,-17.581,-5.010
21559,0.211,8.479,9.018,24.220,-23.428,7.616
21569,0.202,7.830,9.269,18.144,-23.245,21.937
21579,1.425,7.843,8.132,-2.436,-23.184,31.632
21589,1.009,8.450,6.042,-23.597,-21.474,42.884
21599,1.802,6.552,6.342,-55.627,-4.314,41.433
21609,1.787,4.098,5.626,-78.437,6.663,41.219
21619,1.273,1.500,6.680,-87.811,14.053,35.571
21629,1.653,-2.110,6.727,-86.452,18.663,24.960
21639,1.880,-5.434,7.339,-60.452,32.465,3.296
21649,0.640,-5.645,10.191,-10.955,46.450,-17.132
21659,-0.478,-3.701,11.413,43.747,35.427,-28.445
21669,-0.987,0.114,12.799,79.503,22.663,-34.766
21679,-0.560,3.882,11.470,76.587,5.534,-37.850
21689,-0.418,5.373,11.778,59.030,-6.512,-39.285
21699,0.029,5.773,11.147,43.656,-15.764,-38.399
21709,-0.526,6.347,11.325,47.808,-20.680,-27.239
21719,0.454,7.436,10.450,41.167,-24.864,-13.682
21729,-0.548,8.484,10.220,41.274,-32.741,5.998
21739,0.540,9.621,8.495,23.396,-38.650,20.593
21749,0.763,9.079,7.558,2.861,-35.596,38.685
21759,2.092,8.122,5.860,-31.841,-25.154,42.792
21769,1.796,6.429,5.421,-57.337,-8.375,46.532
21779,1.881,4.124,5.731,-74.727,7.717,44.716
21789,1.151,1.875,6.352,-81.215,14.373,43.326
21799,1.639,-1.391,6.606,-85.521,19.579,33.968
21809,1.957,-4.863,6.975,-72.314,31.106,11.372
21819,0.673,-6.070,9.567,-32.620,41.534,-14.338
21829,-0.166,-4.955,11.690,21.442,39.335,-31.422
21839,-1.301,-0.691,11.949,67.137,21.030,-38.964
21849,-0.586,3.388,11.853,72.816,6.541,-41.361
21859,-0.448,4.951,11.359,61.991,-9.215,-39.254
21869,-0.025,5.518,11.074,53.717,-16.925,-38.979
21879,0.974,6.505,9.351,42.892,-21.474,-34.308
21889,0.063,7.183,10.440,45.656,-21.001,-20.628
21899,0.406,8.636,9.619,37.060,-27.993,-4.949
21909,0.529,8.764,8.869,23.625,-29.886,11.296
21919,1.522,8.798,7.277,0.907,-27.642,22.273
21929,0.788,7.958,7.739,-9.887,-21.474,36.380
21939,1.090,8.171,6.644,-30.329,-18.024,43.021
21949,1.882,6.419,5.809,-60.177,-6.695,47.800
21959,1.726,3.576,5.799,-78.040,5.274,46.120
21969,1.638,0.763,6.474,-83.307,12.908,39.998
21979,1.951,-2.555,6.573,-79.063,20.694,26.548
21989,1.924,-5.608,7.848,-55.551,34.251,0.624
21999,1.447,-5.616,9.403,-14.803,48.862,-24.399
22009,-0.512,-3.273,11.186,37.930,41.152,-35.117
22019,-1.082,0.860,12.092,71.167,25.259,-38.796
22049,0.749,5.812,10.387,45.640,-16.818,-39.086
22059,0.843,6.298,10.171,40.694,-16.833,-30.537
22069,-0.093,7.287,10.846,43.640,-19.535,-16.979
22079,-0.118,8.331,10.148,37.823,-27.825,0.105
22089,1.129,8.023,8.229,19.594,-29.703,13.800
22099,0.161,8.246,8.534,15.472,-26.741,26.532
22109,1.325,8.333,7.520,-8.665,-25.841,36.273
22119,1.384,7.652,6.096,-37.230,-16.787,42.181
22129,1.932,5.430,5.877,-66.467,-1.886,40.685
22139,1.291,2.792,6.536,-76.788,7.976,39.174
22149,1.337,0.208,6.943,-78.482,10.511,31.998
22159,2.117,-2.933,6.141,-71.643,18.434,17.677
22169,2.075,-5.050,7.705,-49.230,36.831,-8.674
22179,0.670,-5.335,10.290,0.480,44.312,-27.926
22189,-0.069,-1.847,10.499,50.862,35.808,-37.376
22199,-0.849,1.966,12.137,72.083,26.618,-38.384
22209,-0.774,4.366,11.799,67.839,11.595,-39.453
22219,-0.478,6.154,11.299,51.930,-3.810,-39.666
22229,0.415,6.339,10.689,34.144,-10.512,-35.376
22239,-0.435,6.369,12.064,37.793,-13.764,-23.819
22249,-0.173,8.016,10.304,37.839,-26.314,-6.338
22259,-0.080,8.104,9.848,32.236,-31.138,9.952
22269,0.921,8.183,8.516,17.961,-32.497,21.021
22279,0.529,8.514,8.243,6.785,-29.886,34.380
22289,1.854,7.830,6.320,-24.971,-24.238,38.594
22299,1.375,6.095,6.670,-47.719,-8.589,40.258
22309,1.362,4.562,6.464,-62.345,-2.070,40.197
22319,1.514,2.598,6.379,-72.070,3.060,38.364
22329,1.922,-0.299,6.204,-80.772,8.862,28.670
22339,2.246,-4.001,6.715,-72.238,21.259,8.227
22349,2.129,-5.460,7.880,-40.039,37.366,-17.590
22359,0.699,-3.929,9.770,9.793,45.931,-33.651
22369,-0.794,-0.780,11.735,59.075,36.389,-38.537
22379,-1.031,3.589,11.842,72.282,20.068,-39.040
22389,-0.320,5.646,10.984,55.121,2.908,-37.224
22399,-0.214,5.363,11.725,43.457,-3.718,-35.346
22409,0.071,6.233,10.391,41.091,-12.054,-29.071
22419,0.064,7.302,10.427,42.022,-13.810,-15.056
22429,0.696,8.029,9.345,29.213,-17.383,-2.307
22439,-0.466,8.561,9.551,27.503,-22.207,15.036
22449,1.308,8.426,7.846,5.442,-20.405,22.120
22459,0.250,7.836,8.285,-6.864,-14.909,36.105
22469,1.038,7.725,6.995,-29.933,-12.711,40.700
22479,1.449,6.154,6.518,-58.818,-1.367,43.601
22489,1.280,3.516,6.384,-76.024,5.045,42.303
22499,1.645,0.809,6.325,-84.314,9.503,33.998
22509,2.024,-2.498,6.501,-82.864,17.076,19.738
22519,1.983,-5.241,7.077,-59.124,29.900,-3.849
22529,1.971,-4.307,8.291,-23.536,53.763,-27.040
22538,-0.730,-2.914,11.374,23.625,51.335,-34.521
22549,-1.436,0.624,12.164,62.419,32.755,-35.804
22559,-0.748,4.094,11.838,63.747,16.908,-34.811
22569,-0.803,4.993,11.838,55.656,1.839,-32.017
22579,0.172,5.603,11.098,44.388,-5.963,-34.674
22589,0.616,6.751,9.942,36.495,-9.505,-27.437
22599,-0.094,7.275,10.964,35.136,-10.528,-15.911
22609,-0.660,8.544,10.288,32.129,-23.138,0.822
22619,0.135,8.344,9.452,19.823,-30.131,15.906
22629,0.833,8.462,7.947,4.602,-31.337,27.128
22639,1.284,8.175,7.048,-16.360,-26.635,37.647
22649,1.647,7.265,6.039,-43.200,-14.451,39.510
22659,1.869,5.430,5.842,-67.093,-1.489,39.983
22669,1.417,2.993,6.146,-76.833,7.289,38.670
22679,1.578,0.700,6.351,-80.024,14.526,32.548
22689,1.627,-2.086,6.440,-77.276,22.953,18.975
22699,1.583,-4.495,7.775,-57.353,37.686,-0.399
22709,0.653,-5.343,10.193,-16.787,45.213,-19.972
22719,-0.288,-2.769,10.018,32.801,36.450,-30.659
22729,-0.863,1.087,11.972,62.282,30.511,-33.834
22739,-0.884,3.595,11.763,63.961,15.946,-33.559
22748,-0.643,4.917,11.635,54.892,2.663,-35.865
22759,0.507,5.708,10.768,39.854,-3.550,-36.277
22769,-0.458,6.320,11.917,42.602,-6.543,-26.017
22779,-0.684,8.482,10.383,42.159,-21.322,-8.063
22789,-0.345,8.612,9.852,32.953,-26.482,10.563
22799,1.080,8.021,8.906,11.594,-24.405,21.311
22809,-0.608,8.704,8.845,9.701,-29.260,40.349
22819,2.119,7.845,6.372,-23.887,-23.657,44.685
22829,1.375,5.981,6.463,-45.185,-2.787,47.693
22839,1.645,4.347,6.272,-63.536,8.389,44.029
22849,1.295,2.223,6.412,-76.971,15.381,40.334
22859,1.857,-1.395,6.531,-81.826,23.320,30.548
22869,2.149,-4.937,6.706,-69.017,35.289,7.845
22879,1.884,-6.274,7.737,-27.917,52.938,-17.788
22889,0.457,-3.646,9.951,27.579,68.664,-34.796
22899,-1.645,-0.175,12.179,67.304,54.572,-34.842
22909,-2.424,3.014,13.128,82.098,33.350,-34.323
22919,-2.635,5.387,11.934,71.213,2.511,-30.827
22928,-1.337,6.087,11.666,51.701,-12.497,-30.140
22939,-0.857,6.734,10.723,40.129,-24.802,-22.888
22949,-0.703,6.986,11.470,37.228,-26.176,-12.231
22959,0.572,7.806,8.359,26.755,-36.604,4.914
22969,0.597,7.458,9.010,24.495,-28.283,18.548
22979,0.669,7.858,8.191,18.755,-29.657,34.395
22989,1.287,7.606,7.708,3.472,-19.596,39.540
22999,1.709,7.545,6.339,-27.261,-11.154,38.884
23009,1.493,5.893,6.581,-54.238,4.633,36.074
23019,0.817,3.986,7.030,-69.078,11.976,32.899
23049,1.359,-3.929,8.009,-66.101,22.389,0.624
23059,0.937,-4.410,9.684,-31.062,35.030,-14.933
23069,0.198,-3.476,10.852,16.144,30.679,-24.643
23079,-0.625,-0.589,12.501,63.930,20.892,-28.766
23089,-0.232,3.968,11.173,74.098,6.450,-31.300
23099,-0.611,6.156,11.937,59.045,-3.978,-29.071
23109,-0.199,6.237,11.766,40.495,-12.879,-28.735
23119,-0.367,7.265,10.745,33.625,-23.474,-19.254
23129,0.411,7.456,10.135,25.823,-28.253,-5.529
23139,-0.381,8.234,10.345,28.068,-34.696,12.074
23149,0.835,7.815,9.103,16.587,-41.810,28.563
23159,0.367,7.641,8.247,7.090,-43.383,40.151
23169,2.062,6.492,6.967,-23.368,-35.413,41.387
23179,0.998,5.130,7.090,-42.940,-25.795,39.158
23189,1.799,3.314,6.163,-68.284,-20.467,32.242
23199,1.661,0.390,6.016,-80.666,-11.001,22.090
23209,2.105,-1.824,5.532,-77.505,1.488,9.464
23219,2.097,-3.154,6.103,-57.719,19.518,-4.185
23229,1.183,-3.211,7.662,-27.322,33.564,-18.078
23239,0.685,-1.459,7.357,6.220,37.610,-27.040
23248,-0.724,0.595,10.484,39.503,40.099,-29.437
23259,-0.702,3.391,10.779,51.686,28.877,-28.933
23269,-0.447,5.065,10.928,41.152,16.908,-29.422
23279,-0.666,4.657,12.139,34.694,7.732,-28.079
23289,-0.098,5.813,9.886,33.045,-4.543,-23.666
23299,-0.162,6.366,10.851,37.091,-5.627,-12.384
23309,-0.518,7.252,10.581,35.503,-14.436,0.410
23319,-0.162,7.032,10.711,28.495,-19.520,11.021
23329,0.119,7.769,8.179,14.739,-33.093,21.708
23339,0.597,6.534,8.548,8.694,-25.108,28.395
23349,0.038,7.525,7.399,-5.963,-31.993,35.311
23359,1.818,6.087,5.805,-42.681,-20.543,35.006
23369,1.820,3.535,5.256,-67.551,-4.146,29.250
23379,1.544,1.194,6.115,-74.482,9.121,20.074
23389,1.428,-1.129,6.278,-72.177,15.518,10.945
23398,1.964,-3.610,6.448,-57.429,28.465,-4.246
23409,1.957,-4.180,7.709,-28.497,52.175,-23.712
23419,-0.179,-2.581,9.962,14.480,56.633,-34.262
23429,-0.925,0.055,11.112,52.159,45.457,-35.834
23439,-1.151,2.787,12.376,68.831,33.656,-35.239
23449,-1.241,4.999,11.456,65.411,14.526,-34.292
23459,-0.496,6.524,11.615,48.144,7.305,-34.567
23469,-1.000,6.812,11.415,36.068,-4.329,-23.865
23479,-1.180,6.360,11.848,38.892,-13.963,-11.788
23489,-0.155,7.154,10.250,35.030,-26.421,0.425
23499,0.064,6.813,10.242,34.770,-27.474,13.800
23509,-0.099,8.079,8.471,32.572,-37.978,25.952
23519,1.290,8.192,7.904,8.694,-29.383,31.968
23529,1.590,7.732,5.962,-27.200,-21.398,34.334
23539,2.341,5.652,5.562,-61.597,-1.016,29.708
23549,1.471,2.946,6.581,-76.604,15.091,26.181
23559,0.752,0.984,7.295,-80.421,16.175,21.937
23569,1.587,-1.769,6.145,-86.666,17.793,10.319
23579,1.620,-4.943,7.783,-63.811,37.228,-6.094
23589,0.242,-5.092,9.998,-16.391,48.526,-25.040
23599,0.178,-2.376,10.207,33.182,45.213,-32.659
23609,-1.493,0.888,12.681,74.114,37.992,-32.109
23619,-1.078,4.754,11.340,76.114,17.427,-32.308
23629,-0.932,6.852,11.583,56.480,3.671,-30.964
23639,-0.667,6.518,11.870,35.121,-4.390,-29.132
23649,-1.094,7.029,10.933,35.381,-16.512,-16.369
23659,-0.379,7.229,10.897,34.877,-22.176,-0.750
23669,-0.579,7.820,10.412,32.968,-29.612,12.792
23678,-0.041,7.609,10.164,20.633,-32.802,23.051
23688,-0.259,7.725,8.885,13.121,-39.978,33.616
23699,1.387,7.549,7.350,-14.742,-35.383,35.937
23709,0.776,6.873,6.678,-35.108,-25.535,40.013
23719,1.630,5.461,6.003,-62.528,-15.154,36.975
23729,1.499,2.756,6.076,-79.017,-2.955,34.288
23739,1.456,-0.041,6.182,-84.940,5.182,23.784
23749,1.835,-3.096,6.423,-80.543,14.847,6.990
23759,1.655,-5.542,7.646,-52.040,33.106,-12.933
23769,1.443,-4.592,8.350,-7.184,49.625,-30.475
23779,-1.250,-1.968,11.008,46.007,44.038,-36.598
23789,-1.371,1.775,11.895,80.129,28.572,-35.666
23799,-1.088,5.379,11.551,74.785,9.915,-34.613
23809,-1.202,6.241,12.252,60.648,-3.703,-29.895
23819,-0.116,6.996,10.418,41.717,-15.138,-26.582
23828,0.289,7.293,10.594,32.709,-15.169,-14.338
23839,-0.391,7.806,10.482,31.457,-20.207,1.479
23849,-0.313,7.940,10.804,29.167,-23.123,15.540
23859,0.654,7.823,8.870,11.945,-31.428,29.494
23869,0.567,7.142,8.622,6.861,-24.176,39.174
23878,0.218,8.613,7.346,-12.803,-29.291,47.632
23889,1.565,7.007,6.306,-53.078,-18.741,47.326
23899,1.092,3.831,6.548,-80.452,-8.161,42.700
23909,1.061,0.907,7.121,-86.834,-3.825,34.364
23919,1.417,-2.092,7.007,-85.414,0.633,20.548
23929,1.990,-4.806,6.282,-66.070,9.442,1.280
23939,2.148,-5.317,8.087,-26.558,37.457,-21.880
23949,-0.276,-3.859,10.591,28.144,40.496,-33.483
23959,-0.977,-0.056,10.881,73.182,25.549,-35.651
23969,-0.699,3.923,11.735,82.251,15.763,-36.094
23979,-1.151,5.771,11.465,69.030,-2.497,-33.025
23989,0.110,6.121,10.613,47.060,-12.634,-35.850
23999,0.530,6.619,9.995,34.037,-17.260,-31.315
24009,-0.436,6.950,11.245,43.320,-16.741,-15.056
24019,-0.507,8.553,9.690,44.281,-31.077,4.334
24049,0.476,7.961,7.608,-0.574,-28.131,38.868
24059,1.493,7.968,6.111,-29.429,-21.062,39.998
24069,1.716,5.716,5.947,-58.207,-4.665,39.968
24079,1.283,3.384,6.368,-70.223,6.175,35.815
24089,1.149,1.310,6.777,-76.024,11.381,28.792
24099,1.571,-1.672,6.698,-79.261,15.213,15.937
24109,1.770,-4.758,6.944,-63.505,27.350,-6.338
24119,0.757,-5.071,9.642,-20.329,46.007,-30.155
24129,-0.615,-2.533,10.467,29.778,39.427,-37.682
24139,-1.485,1.022,12.401,69.014,26.297,-36.063
24149,-0.921,3.965,11.553,71.686,7.808,-34.308
24159,-0.618,5.180,11.241,64.740,-6.833,-31.865
24169,-0.296,6.158,11.208,54.709,-14.375,-31.330
24179,-0.327,7.451,10.053,49.411,-24.909,-19.804
24189,0.452,7.749,9.879,40.984,-25.260,-7.300
24199,0.716,7.858,9.121,30.923,-28.451,6.258
24209,0.598,8.288,8.796,23.488,-27.154,17.235
24219,0.730,8.179,7.997,13.258,-27.428,30.975
24229,1.594,8.207,6.761,-11.291,-20.696,37.326
24239,1.437,7.408,5.974,-38.207,-8.650,40.884
24249,1.934,5.358,5.660,-65.933,7.045,38.059
24259,1.298,2.629,6.454,-78.650,18.541,35.204
24269,0.936,-0.117,7.169,-83.444,19.839,24.624
24279,1.649,-3.449,6.624,-80.849,23.793,6.807
24289,1.525,-5.361,7.419,-49.123,41.259,-16.445
24299,0.422,-3.827,10.256,-2.345,56.618,-35.437
24309,-1.345,-1.318,11.877,48.419,39.457,-34.384
24319,-1.249,2.178,12.082,77.976,21.992,-33.895
24329,-0.507,5.321,11.105,68.999,5.014,-35.285
24339,-0.675,6.396,11.867,56.419,-4.573,-30.659
24349,0.351,6.572,10.415,41.381,-13.841,-26.460
24359,0.184,7.150,11.107,40.556,-14.283,-15.269
24369,-0.051,7.998,10.384,35.136,-20.619,-0.781
24379,-0.778,8.504,9.829,34.846,-31.703,17.250
24389,0.343,8.586,9.263,20.312,-36.818,27.586
24399,0.617,8.084,8.076,10.052,-38.177,43.739
24409,1.762,7.355,6.941,-17.566,-27.886,43.174
24419,1.559,6.723,6.005,-47.078,-17.627,42.273
24429,1.862,4.421,6.246,-73.826,-5.398,36.395
24439,1.648,1.225,6.139,-86.055,2.740,29.677
24449,1.736,-1.793,6.732,-82.818,11.518,16.181
24459,2.209,-4.247,6.236,-65.169,24.724,-1.773
24469,1.378,-5.049,8.684,-27.215,42.236,-23.407
24479,-0.192,-3.755,10.688,26.617,42.587,-34.262
24489,-0.506,-0.296,10.354,73.640,29.045,-36.017
24499,-0.775,4.445,11.390,84.495,21.473,-38.048
24509,-0.921,6.667,10.980,65.579,3.472,-34.735
24519,-0.411,6.767,11.389,47.045,-6.619,-33.697
24529,0.189,7.361,10.553,33.518,-13.505,-27.178
24539,-0.902,7.804,11.498,39.717,-16.970,-8.109
24549,-0.172,9.094,9.588,33.228,-31.718,9.708
24559,-0.117,8.939,9.421,24.220,-32.207,25.158
24569,1.234,7.429,8.506,3.900,-31.215,33.387
24579,0.221,7.690,8.211,1.304,-30.848,44.929
24589,1.708,7.974,6.096,-29.688,-27.444,44.563
24599,1.864,5.455,6.125,-58.498,-10.176,43.723
24608,1.721,2.764,6.143,-72.162,1.076,36.166
24619,1.764,0.530,6.410,-77.276,11.045,24.532
24629,1.776,-2.215,6.510,-76.406,16.755,9.494
24639,2.074,-4.791,6.943,-54.681,32.633,-11.269
24649,0.890,-4.469,9.321,-13.276,52.389,-33.285
24659,-0.630,-2.249,10.407,36.449,45.015,-36.582
24669,-1.436,1.700,11.951,75.213,29.992,-35.392
24679,-1.077,5.059,11.706,75.824,11.305,-33.178
24689,-0.661,6.286,11.305,59.564,-6.390,-31.346
24699,0.135,7.081,10.982,42.495,-12.863,-29.682
24709,0.156,7.815,9.534,34.022,-19.566,-17.498
24719,-0.332,8.170,10.393,35.594,-20.070,-2.231
24729,0.444,8.450,9.599,25.747,-25.688,12.700
24739,0.191,7.972,9.474,17.320,-24.100,24.029
24749,0.171,8.106,8.471,12.327,-33.780,39.128
24759,0.797,8.561,7.450,-6.558,-33.047,47.128
24769,2.178,7.134,5.656,-43.398,-21.398,46.777
24779,2.226,4.451,5.708,-69.139,-2.986,41.204
24789,1.756,1.862,6.099,-78.513,9.121,32.426
24798,1.583,-0.567,6.783,-76.956,15.091,22.838
24809,2.169,-3.240,5.889,-72.055,24.480,3.677
24819,1.465,-4.118,7.846,-44.345,46.847,-20.231
24829,-0.189,-3.072,9.889,-0.406,48.343,-30.475
24839,-0.816,-0.239,11.004,41.793,35.015,-33.376
24849,-1.314,2.674,11.907,67.732,18.495,-28.827
24859,-0.003,4.824,11.255,58.236,5.137,-32.246
24869,-0.216,6.221,10.694,48.007,-5.535,-29.453
24879,0.548,6.467,10.333,35.991,-8.512,-27.911
24889,-0.116,7.375,10.916,36.312,-11.474,-17.758
24899,-0.238,8.485,10.432,31.152,-17.642,-2.979
24909,-0.518,8.853,10.033,27.625,-25.749,16.090
24919,1.016,9.039,8.426,6.251,-31.902,29.555
24929,0.810,8.496,7.047,-3.810,-29.581,46.685
24939,2.091,6.885,6.728,-32.085,-12.894,43.250
24949,1.684,6.144,5.834,-54.879,-3.474,43.174
24959,1.969,4.172,5.863,-77.673,10.114,33.937
24969,1.457,1.437,6.388,-87.841,19.106,28.181
24979,1.377,-1.553,6.972,-87.750,25.015,13.662
24989,1.358,-3.925,7.156,-72.940,31.320,-4.765
24999,1.015,-5.175,8.686,-33.551,42.877,-22.353
25009,-0.502,-3.697,11.336,23.365,46.434,-34.109
25018,-0.694,-0.513,10.994,69.992,30.969,-34.582
25049,-0.554,6.473,11.365,49.930,-2.054,-32.811
25059,0.324,7.454,10.342,39.625,-8.573,-26.995
25069,-0.464,8.237,10.484,39.167,-11.779,-8.185
25079,0.342,8.784,9.507,23.839,-18.696,5.219
25089,-0.906,8.976,10.211,24.068,-25.383,23.998
25099,1.481,7.814,8.016,-1.093,-29.551,33.815
25109,0.143,7.059,8.845,-3.810,-22.589,44.990
25119,1.370,7.604,6.580,-34.101,-25.810,44.532
25129,2.134,5.231,6.136,-66.253,-10.604,43.067
25139,1.722,1.726,6.386,-85.093,1.793,31.250
25149,1.718,-1.079,6.694,-84.681,8.724,18.639
25159,2.152,-3.762,6.639,-72.727,18.694,0.181
25169,1.879,-4.851,6.999,-39.062,37.381,-22.109
25179,0.610,-3.205,9.235,6.694,53.946,-38.704
25189,-1.358,-0.685,11.611,54.327,44.389,-39.361
25199,-1.377,3.314,11.152,81.091,21.976,-36.246
25209,-0.789,5.794,11.484,70.938,9.182,-34.704
25219,-0.521,6.256,10.743,55.915,-5.199,-31.895
25229,-0.221,6.984,10.916,47.885,-10.299,-28.888
25239,0.688,7.483,9.777,35.320,-13.535,-20.521
25249,-0.880,8.181,11.017,42.343,-17.947,-3.926
25259,-0.104,8.899,9.661,31.961,-30.054,9.555
25269,-0.306,8.616,9.778,21.426,-32.253,22.471
25279,0.084,8.219,8.596,11.411,-41.688,37.540
25289,0.375,8.683,7.438,-10.696,-44.177,43.479
25299,1.978,6.996,5.669,-52.986,-33.520,41.876
25309,2.117,3.014,5.933,-83.414,-17.383,36.319
25319,1.863,-0.932,6.139,-89.383,-6.665,23.723
25329,2.362,-3.485,5.596,-80.803,5.350,3.570
25339,3.016,-4.383,5.754,-53.551,33.808,-13.956
25349,0.603,-3.838,8.423,-8.619,47.976,-31.178
25359,-0.052,-1.403,9.904,38.831,50.236,-39.086
25369,-0.615,3.497,9.994,64.205,42.984,-35.834
25379,-1.872,6.098,11.651,65.472,26.724,-25.880
25389,-1.050,7.375,11.458,40.449,7.931,-25.849
25399,-0.149,7.402,10.357,16.342,-3.199,-19.330
25409,-0.321,6.261,11.676,15.060,-4.573,-8.979
25419,-0.748,7.179,11.161,25.457,-14.787,6.364
25429,-0.309,7.674,10.383,24.205,-21.657,20.425
25439,0.560,7.658,9.023,7.426,-26.222,26.303
25449,0.288,6.384,9.466,2.190,-26.253,35.494
25459,0.275,7.366,8.030,-8.635,-31.184,39.525
25469,1.923,6.300,6.248,-42.497,-22.680,38.884
25479,1.384,3.662,6.594,-64.207,-8.512,32.120
25489,1.344,1.683,6.536,-71.811,-2.161,22.410
25499,1.601,0.002,6.316,-77.001,5.198,11.036
25509,1.611,-2.017,6.683,-73.200,15.045,-5.086
25519,1.090,-2.820,7.747,-48.711,25.137,-20.613
25529,0.004,-1.517,8.265,-14.497,23.686,-32.857
25539,-1.231,0.418,12.025,19.564,20.404,-35.895
25549,-1.035,2.532,11.889,40.419,-0.146,-31.972
25559,-0.457,4.232,11.458,46.877,-17.321,-32.384
25569,0.845,4.751,11.498,40.480,-17.841,-34.796
25579,0.124,5.616,10.776,46.205,-24.619,-29.666
25589,1.492,6.686,9.362,43.747,-24.253,-24.933
25599,-0.063,7.747,9.826,48.465,-24.390,-13.056
25609,1.155,8.203,10.121,32.113,-20.283,-5.040
25619,0.045,9.122,8.914,16.938,-29.612,11.815
25629,0.472,8.363,9.053,-1.276,-32.161,24.303
25639,-0.101,8.847,7.907,-20.528,-41.444,38.746
25649,1.539,7.100,6.911,-53.643,-35.917,43.555
25659,1.869,4.240,5.877,-76.696,-26.039,43.219
25669,2.122,0.777,6.097,-83.811,-14.619,34.242
25679,2.160,-2.641,6.073,-76.849,-5.566,19.494
25689,3.382,-6.086,6.003,-53.902,14.465,-2.231
25699,3.301,-6.910,6.178,-3.123,45.717,-27.849
25709,0.150,-4.701,10.242,61.518,57.198,-44.934
25719,-1.325,0.214,11.774,113.747,42.969,-44.399
25729,-1.109,5.442,11.192,112.190,21.305,-41.361
25739,-1.072,7.136,12.823,85.671,5.549,-36.201
25749,-0.174,8.088,10.783,50.434,-17.245,-34.063
25759,0.835,6.743,10.066,33.991,-19.428,-25.605
25769,0.934,5.829,10.417,39.197,-12.741,-17.605
25779,-0.685,7.881,11.268,63.747,-17.963,5.189
25789,0.517,9.788,8.504,58.388,-33.062,26.685
25799,1.182,8.583,8.063,50.220,-20.451,43.968
25809,2.037,7.504,7.257,35.869,-8.131,51.800
25819,1.175,7.605,6.424,27.213,-8.955,59.311
25829,2.681,6.857,4.939,-4.940,3.930,51.479
25839,1.712,4.860,5.811,-22.162,15.793,49.036
25849,2.373,1.912,5.362,-26.436,27.259,39.510
25859,1.559,0.131,6.600,-22.329,37.747,27.769
25869,1.665,-2.566,7.566,-7.261,40.557,13.693
25879,1.547,-4.190,7.548,47.808,49.320,15.097
25889,-0.628,-2.788,11.342,106.740,60.999,2.883
25899,-1.429,2.825,11.113,117.473,35.610,-7.620
25909,-1.182,6.685,11.429,115.824,11.137,-1.910
25919,-1.049,7.111,11.161,113.091,-15.520,13.891
25929,-0.228,7.614,9.990,113.732,-33.703,21.387
25939,1.283,6.541,9.166,110.144,-32.986,23.693
25949,0.562,8.823,8.639,120.022,-33.383,30.532
25959,1.642,10.779,7.194,109.335,-32.406,43.158
25969,1.338,10.657,5.969,77.335,-25.795,51.387
25979,2.695,9.147,5.173,39.457,-7.963,43.983
25988,2.169,10.065,4.544,-1.673,8.434,39.769
25999,1.468,9.457,5.471,-37.933,18.999,37.739
26009,1.071,8.610,5.945,-70.452,24.419,41.311
26019,-0.035,6.970,7.740,-94.711,17.869,47.387
26049,2.051,-3.433,7.904,-115.795,-4.436,8.532
26059,1.720,-4.584,8.641,-69.475,6.724,-13.010
26069,1.260,-3.043,10.408,-5.352,16.953,-31.559
26079,0.247,0.791,11.067,47.747,8.465,-34.750
26089,-0.218,5.209,11.029,71.579,-8.146,-34.063
26099,1.230,7.463,9.400,56.449,-22.955,-33.972
26109,1.908,7.683,9.306,41.579,-20.528,-32.460
26119,1.706,7.791,8.513,32.129,-21.184,-29.575
26128,3.508,10.245,5.973,47.259,-26.543,-38.262
